%time,field.header.seq,field.header.stamp,field.header.frame_id,field.orientation.x,field.orientation.y,field.orientation.z,field.orientation.w,field.orientation_covariance0,field.orientation_covariance1,field.orientation_covariance2,field.orientation_covariance3,field.orientation_covariance4,field.orientation_covariance5,field.orientation_covariance6,field.orientation_covariance7,field.orientation_covariance8,field.angular_velocity.x,field.angular_velocity.y,field.angular_velocity.z,field.angular_velocity_covariance0,field.angular_velocity_covariance1,field.angular_velocity_covariance2,field.angular_velocity_covariance3,field.angular_velocity_covariance4,field.angular_velocity_covariance5,field.angular_velocity_covariance6,field.angular_velocity_covariance7,field.angular_velocity_covariance8,field.linear_acceleration.x,field.linear_acceleration.y,field.linear_acceleration.z,field.linear_acceleration_covariance0,field.linear_acceleration_covariance1,field.linear_acceleration_covariance2,field.linear_acceleration_covariance3,field.linear_acceleration_covariance4,field.linear_acceleration_covariance5,field.linear_acceleration_covariance6,field.linear_acceleration_covariance7,field.linear_acceleration_covariance8
1575431731975266131,21540,1570162025068691968,base_imu_link,-0.0359020831277,0.0606742229545,-0.307554221402,0.948915212226,0.0025,0.0,0.0,0.0,0.0025,0.0,0.0,0.0,0.0025,-0.03,0.0,0.03,0.02,0.0,0.0,0.0,0.02,0.0,0.0,0.0,0.02,-0.97676953125,-1.01047765625,9.48041015625,0.04,0.0,0.0,0.0,0.04,0.0,0.0,0.0,0.04
1575431732005974442,21541,1570162025088553905,base_imu_link,-0.0357332459063,0.0611733802651,-0.307603052875,0.948873708428,0.0025,0.0,0.0,0.0,0.0025,0.0,0.0,0.0,0.0025,-0.03,0.01,0.03,0.02,0.0,0.0,0.0,0.02,0.0,0.0,0.0,0.02,-0.909736328125,-0.924292109375,9.78684765625,0.04,0.0,0.0,0.0,0.04,0.0,0.0,0.0,0.04
1575431732006016741,21542,1570162025108460903,base_imu_link,-0.035257707086,0.0610000077601,-0.307303796386,0.948999615316,0.0025,0.0,0.0,0.0,0.0025,0.0,0.0,0.0,0.0025,-0.04,0.0,0.03,0.02,0.0,0.0,0.0,0.02,0.0,0.0,0.0,0.02,-0.87641125,-0.9913253125,9.56199914062,0.04,0.0,0.0,0.0,0.04,0.0,0.0,0.0,0.04
1575431732022205164,21543,1570162025128478050,base_imu_link,-0.0352240389386,0.0608108987689,-0.307403165757,0.948980819276,0.0025,0.0,0.0,0.0,0.0025,0.0,0.0,0.0,0.0025,-0.04,-0.01,0.02,0.02,0.0,0.0,0.0,0.02,0.0,0.0,0.0,0.02,-1.01507421875,-1.00090148437,9.58115148437,0.04,0.0,0.0,0.0,0.04,0.0,0.0,0.0,0.04
1575431732033169814,21544,1570162025148300886,base_imu_link,-0.0350718350578,0.0612334811676,-0.307623496134,0.948887881573,0.0025,0.0,0.0,0.0,0.0025,0.0,0.0,0.0,0.0025,-0.03,-0.01,0.03,0.02,0.0,0.0,0.0,0.02,0.0,0.0,0.0,0.02,-0.924292109375,-1.05835851562,9.8872059375,0.04,0.0,0.0,0.0,0.04,0.0,0.0,0.0,0.04
1575431732080464641,21545,1570162025168661117,base_imu_link,-0.0351931593826,0.0611041990266,-0.307877821689,0.948809235466,0.0025,0.0,0.0,0.0,0.0025,0.0,0.0,0.0,0.0025,-0.03,-0.01,0.03,0.02,0.0,0.0,0.0,0.02,0.0,0.0,0.0,0.02,-0.8043984375,-1.00549804687,9.52369445312,0.04,0.0,0.0,0.0,0.04,0.0,0.0,0.0,0.04
1575431732080612624,21546,1570162025188294887,base_imu_link,-0.0352793113481,0.0605782533671,-0.307834041658,0.94885396569,0.0025,0.0,0.0,0.0,0.0025,0.0,0.0,0.0,0.0025,-0.03,-0.0,0.03,0.02,0.0,0.0,0.0,0.02,0.0,0.0,0.0,0.02,-0.852279296875,-0.885987421875,9.65776085937,0.04,0.0,0.0,0.0,0.04,0.0,0.0,0.0,0.04
1575431732106023441,21547,1570162025208523988,base_imu_link,-0.034698679758,0.0601153050907,-0.307892898169,0.948885722821,0.0025,0.0,0.0,0.0,0.0025,0.0,0.0,0.0,0.0025,-0.03,0.0,0.03,0.02,0.0,0.0,0.0,0.02,0.0,0.0,0.0,0.02,-0.9147159375,-0.962596796875,9.70066210937,0.04,0.0,0.0,0.0,0.04,0.0,0.0,0.0,0.04
1575431732142250939,21548,1570162025228342056,base_imu_link,-0.0344943000804,0.0602178904819,-0.307643894949,0.948967429804,0.0025,0.0,0.0,0.0,0.0025,0.0,0.0,0.0,0.0025,-0.03,0.0,0.03,0.02,0.0,0.0,0.0,0.02,0.0,0.0,0.0,0.02,-1.02005382812,-0.93846484375,9.8014034375,0.04,0.0,0.0,0.0,0.04,0.0,0.0,0.0,0.04
1575431732142265518,21549,1570162025248364925,base_imu_link,-0.0340365901561,0.0605858185653,-0.307052084004,0.949152193712,0.0025,0.0,0.0,0.0,0.0025,0.0,0.0,0.0,0.0025,-0.04,-0.0,0.03,0.02,0.0,0.0,0.0,0.02,0.0,0.0,0.0,0.02,-0.905139765625,-1.11581554687,9.78684765625,0.04,0.0,0.0,0.0,0.04,0.0,0.0,0.0,0.04
1575431732167901099,21550,1570162025268407106,base_imu_link,-0.0346337517529,0.06062915118,-0.307605883104,0.948948486456,0.0025,0.0,0.0,0.0,0.0025,0.0,0.0,0.0,0.0025,-0.04,-0.01,0.02,0.02,0.0,0.0,0.0,0.02,0.0,0.0,0.0,0.02,-0.89556359375,-1.08708703125,9.63860851562,0.04,0.0,0.0,0.0,0.04,0.0,0.0,0.0,0.04
1575431732193443623,21551,1570162025288402080,base_imu_link,-0.0351023011332,0.060598008691,-0.307590594349,0.948938215094,0.0025,0.0,0.0,0.0,0.0025,0.0,0.0,0.0,0.0025,-0.03,-0.01,0.03,0.02,0.0,0.0,0.0,0.02,0.0,0.0,0.0,0.02,-0.93386828125,-1.04380273437,9.8443046875,0.04,0.0,0.0,0.0,0.04,0.0,0.0,0.0,0.04
1575431732193479702,21552,1570162025308278083,base_imu_link,-0.0350758569233,0.0606133191902,-0.308004617462,0.948803913051,0.0025,0.0,0.0,0.0,0.0025,0.0,0.0,0.0,0.0025,-0.03,-0.01,0.03,0.02,0.0,0.0,0.0,0.02,0.0,0.0,0.0,0.02,-0.74694140625,-1.05835851562,9.55242296875,0.04,0.0,0.0,0.0,0.04,0.0,0.0,0.0,0.04
1575431732242470054,21553,1570162025328181028,base_imu_link,-0.0356011850623,0.0599313195459,-0.30754236282,0.948977601227,0.0025,0.0,0.0,0.0,0.0025,0.0,0.0,0.0,0.0025,-0.03,-0.0,0.03,0.02,0.0,0.0,0.0,0.02,0.0,0.0,0.0,0.02,-0.928888671875,-0.93846484375,9.5715753125,0.04,0.0,0.0,0.0,0.04,0.0,0.0,0.0,0.04
1575431732242666125,21554,1570162025348261117,base_imu_link,-0.0351525466716,0.0600175873561,-0.306806368199,0.9492270751,0.0025,0.0,0.0,0.0,0.0025,0.0,0.0,0.0,0.0025,-0.03,0.0,0.03,0.02,0.0,0.0,0.0,0.02,0.0,0.0,0.0,0.02,-0.741961796875,-1.01507421875,9.62903234375,0.04,0.0,0.0,0.0,0.04,0.0,0.0,0.0,0.04
1575431732316422605,21555,1570162025368273973,base_imu_link,-0.0354320322051,0.0593950781779,-0.307176958545,0.949135981786,0.0025,0.0,0.0,0.0,0.0025,0.0,0.0,0.0,0.0025,-0.03,0.0,0.03,0.02,0.0,0.0,0.0,0.02,0.0,0.0,0.0,0.02,-0.948041015625,-0.9913253125,9.62405273437,0.04,0.0,0.0,0.0,0.04,0.0,0.0,0.0,0.04
1575431732316450140,21556,1570162025388282060,base_imu_link,-0.0352456111246,0.0596959910836,-0.30707710678,0.949156354894,0.0025,0.0,0.0,0.0,0.0025,0.0,0.0,0.0,0.0025,-0.04,-0.0,0.03,0.02,0.0,0.0,0.0,0.02,0.0,0.0,0.0,0.02,-1.01047765625,-1.00090148437,9.65776085937,0.04,0.0,0.0,0.0,0.04,0.0,0.0,0.0,0.04
1575431732316501798,21557,1570162025408566951,base_imu_link,-0.0350719361284,0.060198306164,-0.307209381532,0.949088256765,0.0025,0.0,0.0,0.0,0.0025,0.0,0.0,0.0,0.0025,-0.04,-0.01,0.03,0.02,0.0,0.0,0.0,0.02,0.0,0.0,0.0,0.02,-0.905139765625,-1.08210742187,9.7247940625,0.04,0.0,0.0,0.0,0.04,0.0,0.0,0.0,0.04
1575431732316508364,21558,1570162025428255081,base_imu_link,-0.0354146715395,0.0602321214148,-0.307442405233,0.948997924157,0.0025,0.0,0.0,0.0,0.0025,0.0,0.0,0.0,0.0025,-0.03,-0.01,0.03,0.02,0.0,0.0,0.0,0.02,0.0,0.0,0.0,0.02,-0.967193359375,-1.02963,9.729390625,0.04,0.0,0.0,0.0,0.04,0.0,0.0,0.0,0.04
1575431732382795892,21559,1570162025448184967,base_imu_link,-0.0353488059283,0.0604709193937,-0.307177146662,0.949071088168,0.0025,0.0,0.0,0.0,0.0025,0.0,0.0,0.0,0.0025,-0.03,-0.01,0.03,0.02,0.0,0.0,0.0,0.02,0.0,0.0,0.0,0.02,-0.89556359375,-0.890583984375,9.4183565625,0.04,0.0,0.0,0.0,0.04,0.0,0.0,0.0,0.04
1575431732382838145,21560,1570162025468097925,base_imu_link,-0.034856275151,0.0603745236384,-0.306706222467,0.949247728508,0.0025,0.0,0.0,0.0,0.0025,0.0,0.0,0.0,0.0025,-0.03,-0.0,0.03,0.02,0.0,0.0,0.0,0.02,0.0,0.0,0.0,0.02,-0.852279296875,-1.02005382812,9.66733703125,0.04,0.0,0.0,0.0,0.04,0.0,0.0,0.0,0.04
1575431732382848100,21561,1570162025488193035,base_imu_link,-0.0349272807746,0.0601324988381,-0.306888568298,0.949201545663,0.0025,0.0,0.0,0.0,0.0025,0.0,0.0,0.0,0.0025,-0.03,0.0,0.03,0.02,0.0,0.0,0.0,0.02,0.0,0.0,0.0,0.02,-1.02005382812,-0.866835078125,9.62903234375,0.04,0.0,0.0,0.0,0.04,0.0,0.0,0.0,0.04
1575431732389694985,21562,1570162025508064031,base_imu_link,-0.0340683081495,0.0605679887442,-0.306555067011,0.949312835692,0.0025,0.0,0.0,0.0,0.0025,0.0,0.0,0.0,0.0025,-0.04,0.0,0.03,0.02,0.0,0.0,0.0,0.02,0.0,0.0,0.0,0.02,-0.953020625,-1.03920617187,9.65278125,0.04,0.0,0.0,0.0,0.04,0.0,0.0,0.0,0.04
1575431732417629350,21563,1570162025528069019,base_imu_link,-0.0343188220415,0.0608553940574,-0.306936992806,0.949162010362,0.0025,0.0,0.0,0.0,0.0025,0.0,0.0,0.0,0.0025,-0.04,-0.0,0.02,0.02,0.0,0.0,0.0,0.02,0.0,0.0,0.0,0.02,-1.02465039062,-1.03920617187,9.82515234375,0.04,0.0,0.0,0.0,0.04,0.0,0.0,0.0,0.04
1575431732441121799,21564,1570162025548274993,base_imu_link,-0.0342768632409,0.0612219417549,-0.307157910616,0.949068484589,0.0025,0.0,0.0,0.0,0.0025,0.0,0.0,0.0,0.0025,-0.03,-0.01,0.02,0.02,0.0,0.0,0.0,0.02,0.0,0.0,0.0,0.02,-0.9193125,-1.00549804687,9.7247940625,0.04,0.0,0.0,0.0,0.04,0.0,0.0,0.0,0.04
1575431732448776787,21565,1570162025568047046,base_imu_link,-0.0343414172208,0.0611182862846,-0.306583664628,0.949258488889,0.0025,0.0,0.0,0.0,0.0025,0.0,0.0,0.0,0.0025,-0.03,-0.01,0.03,0.02,0.0,0.0,0.0,0.02,0.0,0.0,0.0,0.02,-0.852279296875,-1.02465039062,9.729390625,0.04,0.0,0.0,0.0,0.04,0.0,0.0,0.0,0.04
1575431732472349960,21566,1570162025588068008,base_imu_link,-0.0344613297527,0.0607137758278,-0.306859958849,0.949190823719,0.0025,0.0,0.0,0.0,0.0025,0.0,0.0,0.0,0.0025,-0.03,-0.01,0.03,0.02,0.0,0.0,0.0,0.02,0.0,0.0,0.0,0.02,-0.8043984375,-1.00090148437,9.71521789062,0.04,0.0,0.0,0.0,0.04,0.0,0.0,0.0,0.04
1575431732573049931,21567,1570162025608055114,base_imu_link,-0.0345635192138,0.0601110921987,-0.306986845639,0.949184437472,0.0025,0.0,0.0,0.0,0.0025,0.0,0.0,0.0,0.0025,-0.03,-0.0,0.03,0.02,0.0,0.0,0.0,0.02,0.0,0.0,0.0,0.02,-0.9576171875,-0.943444453125,9.87303320312,0.04,0.0,0.0,0.0,0.04,0.0,0.0,0.0,0.04
1575431732573113690,21568,1570162025628062963,base_imu_link,-0.0341769151316,0.0602371336969,-0.306577108655,0.949322865334,0.0025,0.0,0.0,0.0,0.0025,0.0,0.0,0.0,0.0025,-0.03,0.0,0.03,0.02,0.0,0.0,0.0,0.02,0.0,0.0,0.0,0.02,-0.948041015625,-0.948041015625,9.89678210937,0.04,0.0,0.0,0.0,0.04,0.0,0.0,0.0,0.04
1575431732573173480,21569,1570162025648046970,base_imu_link,-0.0337973660774,0.060224631974,-0.306923999444,0.949225152593,0.0025,0.0,0.0,0.0,0.0025,0.0,0.0,0.0,0.0025,-0.03,0.0,0.03,0.02,0.0,0.0,0.0,0.02,0.0,0.0,0.0,0.02,-1.03920617187,-0.909736328125,9.58574804687,0.04,0.0,0.0,0.0,0.04,0.0,0.0,0.0,0.04
1575431732573231466,21570,1570162025668101072,base_imu_link,-0.0332751016932,0.0607646322193,-0.306487115598,0.949350343683,0.0025,0.0,0.0,0.0,0.0025,0.0,0.0,0.0,0.0025,-0.04,-0.0,0.03,0.02,0.0,0.0,0.0,0.02,0.0,0.0,0.0,0.02,-0.953020625,-0.995921875,9.82515234375,0.04,0.0,0.0,0.0,0.04,0.0,0.0,0.0,0.04
1575431732635576536,21571,1570162025688028097,base_imu_link,-0.0333632529342,0.0607884667727,-0.306398964357,0.949374178236,0.0025,0.0,0.0,0.0,0.0025,0.0,0.0,0.0,0.0025,-0.04,-0.01,0.03,0.02,0.0,0.0,0.0,0.02,0.0,0.0,0.0,0.02,-0.981749140625,-1.1108359375,9.67691320312,0.04,0.0,0.0,0.0,0.04,0.0,0.0,0.0,0.04
1575431732635606503,21572,1570162025708030939,base_imu_link,-0.0338889075931,0.0611410534957,-0.306350716353,0.949348488233,0.0025,0.0,0.0,0.0,0.0025,0.0,0.0,0.0,0.0025,-0.03,-0.01,0.03,0.02,0.0,0.0,0.0,0.02,0.0,0.0,0.0,0.02,-0.8810078125,-0.962596796875,9.65776085937,0.04,0.0,0.0,0.0,0.04,0.0,0.0,0.0,0.04
1575431732635630803,21573,1570162025728327035,base_imu_link,-0.0338099400376,0.0608364860485,-0.306295073284,0.949388823403,0.0025,0.0,0.0,0.0,0.0025,0.0,0.0,0.0,0.0025,-0.03,-0.0,0.03,0.02,0.0,0.0,0.0,0.02,0.0,0.0,0.0,0.02,-0.75153796875,-1.01507421875,9.50913867187,0.04,0.0,0.0,0.0,0.04,0.0,0.0,0.0,0.04
1575431732635656785,21574,1570162025747992992,base_imu_link,-0.0341716583199,0.060240115966,-0.306659951535,0.949296107819,0.0025,0.0,0.0,0.0,0.0025,0.0,0.0,0.0,0.0025,-0.03,0.0,0.03,0.02,0.0,0.0,0.0,0.02,0.0,0.0,0.0,0.02,-0.8381065625,-0.953020625,9.67691320312,0.04,0.0,0.0,0.0,0.04,0.0,0.0,0.0,0.04
1575431732666973825,21575,1570162025767941951,base_imu_link,-0.0340369820368,0.0598260017978,-0.306614785861,0.949341722697,0.0025,0.0,0.0,0.0,0.0025,0.0,0.0,0.0,0.0025,-0.03,0.01,0.03,0.02,0.0,0.0,0.0,0.02,0.0,0.0,0.0,0.02,-0.93846484375,-1.03920617187,9.52829101562,0.04,0.0,0.0,0.0,0.04,0.0,0.0,0.0,0.04
1575431732687310415,21576,1570162025787760019,base_imu_link,-0.0342869103621,0.0601811729378,-0.306577362598,0.949322366188,0.0025,0.0,0.0,0.0,0.0025,0.0,0.0,0.0,0.0025,-0.04,0.0,0.03,0.02,0.0,0.0,0.0,0.02,0.0,0.0,0.0,0.02,-1.01507421875,-1.01047765625,9.55701953125,0.04,0.0,0.0,0.0,0.04,0.0,0.0,0.0,0.04
1575431732705882034,21577,1570162025807780027,base_imu_link,-0.0342731435922,0.0608076835948,-0.306362433134,0.949352324908,0.0025,0.0,0.0,0.0,0.0025,0.0,0.0,0.0,0.0025,-0.04,-0.01,0.03,0.02,0.0,0.0,0.0,0.02,0.0,0.0,0.0,0.02,-0.909736328125,-0.89556359375,9.59072765625,0.04,0.0,0.0,0.0,0.04,0.0,0.0,0.0,0.04
1575431732732082331,21578,1570162025827754974,base_imu_link,-0.0338543148562,0.0606090185187,-0.306891486834,0.949209169545,0.0025,0.0,0.0,0.0,0.0025,0.0,0.0,0.0,0.0025,-0.04,-0.01,0.03,0.02,0.0,0.0,0.0,0.02,0.0,0.0,0.0,0.02,-0.81895421875,-1.12998828125,9.85388085937,0.04,0.0,0.0,0.0,0.04,0.0,0.0,0.0,0.04
1575431732761385194,21579,1570162025847846031,base_imu_link,-0.0346515989386,0.0601348579324,-0.306898765914,0.949208203206,0.0025,0.0,0.0,0.0,0.0025,0.0,0.0,0.0,0.0025,-0.03,-0.01,0.03,0.02,0.0,0.0,0.0,0.02,0.0,0.0,0.0,0.02,-0.81895421875,-1.05337890625,9.67691320312,0.04,0.0,0.0,0.0,0.04,0.0,0.0,0.0,0.04
1575431732761394597,21580,1570162025867850065,base_imu_link,-0.0349635994255,0.0597687978649,-0.306750313294,0.949267866733,0.0025,0.0,0.0,0.0,0.0025,0.0,0.0,0.0,0.0025,-0.03,-0.0,0.03,0.02,0.0,0.0,0.0,0.02,0.0,0.0,0.0,0.02,-0.890583984375,-1.00090148437,9.68150976562,0.04,0.0,0.0,0.0,0.04,0.0,0.0,0.0,0.04
1575431732818022259,21581,1570162025887881994,base_imu_link,-0.0348755464354,0.0597450723157,-0.306838366284,0.949244141183,0.0025,0.0,0.0,0.0,0.0025,0.0,0.0,0.0,0.0025,-0.03,0.0,0.03,0.02,0.0,0.0,0.0,0.02,0.0,0.0,0.0,0.02,-0.905139765625,-1.03920617187,9.86805359375,0.04,0.0,0.0,0.0,0.04,0.0,0.0,0.0,0.04
1575431732818143681,21582,1570162025907744884,base_imu_link,-0.0350157442214,0.0597382636141,-0.305921804109,0.949535195392,0.0025,0.0,0.0,0.0,0.0025,0.0,0.0,0.0,0.0025,-0.03,0.0,0.03,0.02,0.0,0.0,0.0,0.02,0.0,0.0,0.0,0.02,-1.09168359375,-0.995921875,9.729390625,0.04,0.0,0.0,0.0,0.04,0.0,0.0,0.0,0.04
1575431732818240128,21583,1570162025927788019,base_imu_link,-0.0346242652592,0.0606276612076,-0.306031775949,0.949457739481,0.0025,0.0,0.0,0.0,0.0025,0.0,0.0,0.0,0.0025,-0.04,0.0,0.03,0.02,0.0,0.0,0.0,0.02,0.0,0.0,0.0,0.02,-0.943444453125,-0.97217296875,9.7676953125,0.04,0.0,0.0,0.0,0.04,0.0,0.0,0.0,0.04
1575431733038569044,21584,1570162025947848081,base_imu_link,-0.0344049735205,0.0606719907879,-0.306451062821,0.949327632289,0.0025,0.0,0.0,0.0,0.0025,0.0,0.0,0.0,0.0025,-0.04,-0.01,0.03,0.02,0.0,0.0,0.0,0.02,0.0,0.0,0.0,0.02,-0.948041015625,-0.981749140625,9.70066210937,0.04,0.0,0.0,0.0,0.04,0.0,0.0,0.0,0.04
1575431733038585692,21585,1570162025967751026,base_imu_link,-0.0342843835374,0.060733945868,-0.306616502946,0.949274611999,0.0025,0.0,0.0,0.0,0.0025,0.0,0.0,0.0,0.0025,-0.04,-0.01,0.03,0.02,0.0,0.0,0.0,0.02,0.0,0.0,0.0,0.02,-0.9147159375,-0.924292109375,9.71521789062,0.04,0.0,0.0,0.0,0.04,0.0,0.0,0.0,0.04
1575431733038591378,21586,1570162025987884998,base_imu_link,-0.0338709313298,0.0605322269444,-0.307062653548,0.949158119761,0.0025,0.0,0.0,0.0,0.0025,0.0,0.0,0.0,0.0025,-0.03,-0.01,0.03,0.02,0.0,0.0,0.0,0.02,0.0,0.0,0.0,0.02,-0.81895421875,-1.05835851562,9.62405273437,0.04,0.0,0.0,0.0,0.04,0.0,0.0,0.0,0.04
1575431733038620092,21587,1570162026007684946,base_imu_link,-0.0343969055039,0.0601252122238,-0.306577626309,0.949321847844,0.0025,0.0,0.0,0.0,0.0025,0.0,0.0,0.0,0.0025,-0.03,-0.0,0.03,0.02,0.0,0.0,0.0,0.02,0.0,0.0,0.0,0.02,-0.8810078125,-0.967193359375,9.75811914062,0.04,0.0,0.0,0.0,0.04,0.0,0.0,0.0,0.04
1575431733038652420,21588,1570162026027631998,base_imu_link,-0.0341807553693,0.0599592494186,-0.306516003107,0.949360049829,0.0025,0.0,0.0,0.0,0.0025,0.0,0.0,0.0,0.0025,-0.03,0.0,0.03,0.02,0.0,0.0,0.0,0.02,0.0,0.0,0.0,0.02,-0.890583984375,-0.948041015625,9.81557617187,0.04,0.0,0.0,0.0,0.04,0.0,0.0,0.0,0.04
1575431733038675491,21589,1570162026047697067,base_imu_link,-0.0339645726332,0.0597933173568,-0.306454308922,0.949398190196,0.0025,0.0,0.0,0.0,0.0025,0.0,0.0,0.0,0.0025,-0.03,0.0,0.03,0.02,0.0,0.0,0.0,0.02,0.0,0.0,0.0,0.02,-0.97217296875,-1.02963,9.686489375,0.04,0.0,0.0,0.0,0.04,0.0,0.0,0.0,0.04
1575431733038680696,21590,1570162026067595958,base_imu_link,-0.0340940709532,0.0602103795678,-0.306582364169,0.949325844217,0.0025,0.0,0.0,0.0,0.0025,0.0,0.0,0.0,0.0025,-0.04,-0.0,0.03,0.02,0.0,0.0,0.0,0.02,0.0,0.0,0.0,0.02,-0.948041015625,-1.09666320312,9.59532421875,0.04,0.0,0.0,0.0,0.04,0.0,0.0,0.0,0.04
1575431733038701491,21591,1570162026087618112,base_imu_link,-0.0346468220548,0.0604803603879,-0.306539976324,0.949302357863,0.0025,0.0,0.0,0.0,0.0025,0.0,0.0,0.0,0.0025,-0.04,-0.01,0.02,0.02,0.0,0.0,0.0,0.02,0.0,0.0,0.0,0.02,-0.871431640625,-1.11581554687,9.54284679687,0.04,0.0,0.0,0.0,0.04,0.0,0.0,0.0,0.04
1575431733038723369,21592,1570162026107541084,base_imu_link,-0.0352598980414,0.0605144986572,-0.306845517556,0.949178889039,0.0025,0.0,0.0,0.0,0.0025,0.0,0.0,0.0,0.0025,-0.03,-0.01,0.03,0.02,0.0,0.0,0.0,0.02,0.0,0.0,0.0,0.02,-0.962596796875,-1.07253125,9.70564171875,0.04,0.0,0.0,0.0,0.04,0.0,0.0,0.0,0.04
1575431733071773320,21593,1570162026127660989,base_imu_link,-0.0354593263803,0.0607571292305,-0.306735588798,0.949191490683,0.0025,0.0,0.0,0.0,0.0025,0.0,0.0,0.0,0.0025,-0.03,-0.01,0.03,0.02,0.0,0.0,0.0,0.02,0.0,0.0,0.0,0.02,-0.8810078125,-0.909736328125,9.70564171875,0.04,0.0,0.0,0.0,0.04,0.0,0.0,0.0,0.04
1575431733071787228,21594,1570162026147490024,base_imu_link,-0.0349383328291,0.0604687554298,-0.306281168426,0.949375946811,0.0025,0.0,0.0,0.0,0.0025,0.0,0.0,0.0,0.0025,-0.03,0.0,0.03,0.02,0.0,0.0,0.0,0.02,0.0,0.0,0.0,0.02,-0.8810078125,-1.01047765625,9.61945617187,0.04,0.0,0.0,0.0,0.04,0.0,0.0,0.0,0.04
1575431733071824280,21595,1570162026167500972,base_imu_link,-0.0349654642167,0.0603860377625,-0.306286737317,0.94937841628,0.0025,0.0,0.0,0.0,0.0025,0.0,0.0,0.0,0.0025,-0.03,0.01,0.03,0.02,0.0,0.0,0.0,0.02,0.0,0.0,0.0,0.02,-0.943444453125,-0.962596796875,9.91133789062,0.04,0.0,0.0,0.0,0.04,0.0,0.0,0.0,0.04
1575431733091964940,21596,1570162026187717914,base_imu_link,-0.0346122034175,0.0603588191968,-0.306219406438,0.94941481105,0.0025,0.0,0.0,0.0,0.0025,0.0,0.0,0.0,0.0025,-0.03,0.0,0.03,0.02,0.0,0.0,0.0,0.02,0.0,0.0,0.0,0.02,-0.943444453125,-0.995921875,9.69606554687,0.04,0.0,0.0,0.0,0.04,0.0,0.0,0.0,0.04
1575431733171604662,21597,1570162026207525014,base_imu_link,-0.0345368269586,0.0605363210787,-0.30653970773,0.949302885805,0.0025,0.0,0.0,0.0,0.0025,0.0,0.0,0.0,0.0025,-0.03,-0.0,0.02,0.02,0.0,0.0,0.0,0.02,0.0,0.0,0.0,0.02,-0.909736328125,-1.07253125,9.76309875,0.04,0.0,0.0,0.0,0.04,0.0,0.0,0.0,0.04
1575431733171663046,21598,1570162026227600097,base_imu_link,-0.0349172231234,0.0604809475244,-0.306612544482,0.949268976677,0.0025,0.0,0.0,0.0,0.0025,0.0,0.0,0.0,0.0025,-0.04,-0.01,0.02,0.02,0.0,0.0,0.0,0.02,0.0,0.0,0.0,0.02,-0.852279296875,-0.948041015625,9.78225109375,0.04,0.0,0.0,0.0,0.04,0.0,0.0,0.0,0.04
1575431733171698925,21599,1570162026247457027,base_imu_link,-0.0346806494567,0.0599094020984,-0.306003741428,0.949510308699,0.0025,0.0,0.0,0.0,0.0025,0.0,0.0,0.0,0.0025,-0.03,-0.01,0.03,0.02,0.0,0.0,0.0,0.02,0.0,0.0,0.0,0.02,-0.737365234375,-1.07751085937,9.69606554687,0.04,0.0,0.0,0.0,0.04,0.0,0.0,0.0,0.04
1575431733171703363,21600,1570162026267290115,base_imu_link,-0.0352727556314,0.0591950514982,-0.3062039154,0.949468767671,0.0025,0.0,0.0,0.0,0.0025,0.0,0.0,0.0,0.0025,-0.03,-0.01,0.03,0.02,0.0,0.0,0.0,0.02,0.0,0.0,0.0,0.02,-0.81895421875,-1.11581554687,9.52829101562,0.04,0.0,0.0,0.0,0.04,0.0,0.0,0.0,0.04
1575431733171707069,21601,1570162026287405014,base_imu_link,-0.0359186057053,0.0591433149399,-0.306432977482,0.949373873863,0.0025,0.0,0.0,0.0,0.0025,0.0,0.0,0.0,0.0025,-0.03,0.0,0.03,0.02,0.0,0.0,0.0,0.02,0.0,0.0,0.0,0.02,-0.866835078125,-0.9576171875,9.68150976562,0.04,0.0,0.0,0.0,0.04,0.0,0.0,0.0,0.04
1575431733197575001,21602,1570162026307459115,base_imu_link,-0.035607814929,0.059023920175,-0.306122186706,0.949493268628,0.0025,0.0,0.0,0.0,0.0025,0.0,0.0,0.0,0.0025,-0.03,0.01,0.03,0.02,0.0,0.0,0.0,0.02,0.0,0.0,0.0,0.02,-0.953020625,-0.9193125,9.73437023437,0.04,0.0,0.0,0.0,0.04,0.0,0.0,0.0,0.04
1575431733209429756,21603,1570162026327366113,base_imu_link,-0.0349699590693,0.0592803464397,-0.306208385923,0.949473204929,0.0025,0.0,0.0,0.0,0.0025,0.0,0.0,0.0,0.0025,-0.04,0.01,0.03,0.02,0.0,0.0,0.0,0.02,0.0,0.0,0.0,0.02,-1.05835851562,-0.948041015625,9.79642382812,0.04,0.0,0.0,0.0,0.04,0.0,0.0,0.0,0.04
1575431733227422062,21604,1570162026347285985,base_imu_link,-0.0344512072533,0.0599597820373,-0.306588652657,0.949326780892,0.0025,0.0,0.0,0.0,0.0025,0.0,0.0,0.0,0.0025,-0.04,-0.0,0.03,0.02,0.0,0.0,0.0,0.02,0.0,0.0,0.0,0.02,-1.05835851562,-1.08210742187,9.64320507812,0.04,0.0,0.0,0.0,0.04,0.0,0.0,0.0,0.04
1575431733248205015,21605,1570162026367501020,base_imu_link,-0.0346528999653,0.060819814613,-0.306015355436,0.949449697937,0.0025,0.0,0.0,0.0,0.0025,0.0,0.0,0.0,0.0025,-0.04,-0.01,0.02,0.02,0.0,0.0,0.0,0.02,0.0,0.0,0.0,0.02,-0.928888671875,-1.07253125,9.77267492187,0.04,0.0,0.0,0.0,0.04,0.0,0.0,0.0,0.04
1575431733270340522,21606,1570162026387320995,base_imu_link,-0.0350114298109,0.0608439089319,-0.305999701007,0.949440046297,0.0025,0.0,0.0,0.0,0.0025,0.0,0.0,0.0,0.0025,-0.04,-0.01,0.03,0.02,0.0,0.0,0.0,0.02,0.0,0.0,0.0,0.02,-0.9147159375,-1.02005382812,9.61945617187,0.04,0.0,0.0,0.0,0.04,0.0,0.0,0.0,0.04
1575431733291008514,21607,1570162026407301902,base_imu_link,-0.0350120256377,0.0607764696479,-0.306419536328,0.949308931041,0.0025,0.0,0.0,0.0,0.0025,0.0,0.0,0.0,0.0025,-0.03,-0.0,0.03,0.02,0.0,0.0,0.0,0.02,0.0,0.0,0.0,0.02,-0.86185546875,-0.93386828125,9.76309875,0.04,0.0,0.0,0.0,0.04,0.0,0.0,0.0,0.04
1575431733314754961,21608,1570162026427247047,base_imu_link,-0.0346016682891,0.0603648592465,-0.306385105917,0.949361351221,0.0025,0.0,0.0,0.0,0.0025,0.0,0.0,0.0,0.0025,-0.03,-0.0,0.03,0.02,0.0,0.0,0.0,0.02,0.0,0.0,0.0,0.02,-0.828530390625,-1.07751085937,9.67691320312,0.04,0.0,0.0,0.0,0.04,0.0,0.0,0.0,0.04
1575431733327370054,21609,1570162026447276115,base_imu_link,-0.0350981992551,0.060182997415,-0.306795234426,0.949222211795,0.0025,0.0,0.0,0.0,0.0025,0.0,0.0,0.0,0.0025,-0.03,0.01,0.03,0.02,0.0,0.0,0.0,0.02,0.0,0.0,0.0,0.02,-0.842703125,-0.948041015625,9.39422460937,0.04,0.0,0.0,0.0,0.04,0.0,0.0,0.0,0.04
1575431733348125883,21610,1570162026467282056,base_imu_link,-0.0350182670588,0.0599457113256,-0.306319779197,0.949393714714,0.0025,0.0,0.0,0.0,0.0025,0.0,0.0,0.0,0.0025,-0.03,0.0,0.03,0.02,0.0,0.0,0.0,0.02,0.0,0.0,0.0,0.02,-0.962596796875,-1.02963,9.63860851562,0.04,0.0,0.0,0.0,0.04,0.0,0.0,0.0,0.04
1575431733368287667,21611,1570162026487330913,base_imu_link,-0.0350920597072,0.0602534559887,-0.306458305146,0.949326801262,0.0025,0.0,0.0,0.0,0.0025,0.0,0.0,0.0,0.0025,-0.04,-0.01,0.02,0.02,0.0,0.0,0.0,0.02,0.0,0.0,0.0,0.02,-1.06295507812,-0.981749140625,9.7676953125,0.04,0.0,0.0,0.0,0.04,0.0,0.0,0.0,0.04
1575431733401468878,21612,1570162026507210016,base_imu_link,-0.0346932676044,0.0608707545607,-0.306672810933,0.949232803614,0.0025,0.0,0.0,0.0,0.0025,0.0,0.0,0.0,0.0025,-0.04,-0.01,0.02,0.02,0.0,0.0,0.0,0.02,0.0,0.0,0.0,0.02,-0.9576171875,-1.03920617187,9.78225109375,0.04,0.0,0.0,0.0,0.04,0.0,0.0,0.0,0.04
1575431733437626242,21613,1570162026527218103,base_imu_link,-0.0347648979848,0.0609711202888,-0.306413396187,0.949307513399,0.0025,0.0,0.0,0.0,0.0025,0.0,0.0,0.0,0.0025,-0.03,-0.01,0.02,0.02,0.0,0.0,0.0,0.02,0.0,0.0,0.0,0.02,-0.852279296875,-1.09666320312,9.58574804687,0.04,0.0,0.0,0.0,0.04,0.0,0.0,0.0,0.04
1575431733437671710,21614,1570162026547225952,base_imu_link,-0.0352611796284,0.0607893702833,-0.306823409044,0.949168424114,0.0025,0.0,0.0,0.0,0.0025,0.0,0.0,0.0,0.0025,-0.03,-0.0,0.03,0.02,0.0,0.0,0.0,0.02,0.0,0.0,0.0,0.02,-0.8810078125,-1.00549804687,9.70066210937,0.04,0.0,0.0,0.0,0.04,0.0,0.0,0.0,0.04
1575431733456646601,21615,1570162026567241907,base_imu_link,-0.0351227010424,0.0606531198768,-0.30683961084,0.949177037301,0.0025,0.0,0.0,0.0,0.0025,0.0,0.0,0.0,0.0025,-0.03,0.0,0.03,0.02,0.0,0.0,0.0,0.02,0.0,0.0,0.0,0.02,-0.794822265625,-0.97676953125,9.71023828125,0.04,0.0,0.0,0.0,0.04,0.0,0.0,0.0,0.04
1575431733486111676,21616,1570162026587055921,base_imu_link,-0.0351734946197,0.0600053131462,-0.306475006758,0.949334112893,0.0025,0.0,0.0,0.0,0.0025,0.0,0.0,0.0,0.0025,-0.03,0.0,0.03,0.02,0.0,0.0,0.0,0.02,0.0,0.0,0.0,0.02,-1.08708703125,-1.01507421875,9.78684765625,0.04,0.0,0.0,0.0,0.04,0.0,0.0,0.0,0.04
1575431733518858187,21617,1570162026607270956,base_imu_link,-0.0348908345506,0.0609060176876,-0.306165126342,0.949387171857,0.0025,0.0,0.0,0.0,0.0025,0.0,0.0,0.0,0.0025,-0.04,-0.0,0.03,0.02,0.0,0.0,0.0,0.02,0.0,0.0,0.0,0.02,-0.967193359375,-0.943444453125,9.56199914062,0.04,0.0,0.0,0.0,0.04,0.0,0.0,0.0,0.04
1575431733518865188,21618,1570162026627062082,base_imu_link,-0.0345395866581,0.0610860753842,-0.306495729841,0.949281768463,0.0025,0.0,0.0,0.0,0.0025,0.0,0.0,0.0,0.0025,-0.04,-0.01,0.03,0.02,0.0,0.0,0.0,0.02,0.0,0.0,0.0,0.02,-0.905139765625,-1.09666320312,9.60030382812,0.04,0.0,0.0,0.0,0.04,0.0,0.0,0.0,0.04
1575431733576738324,21619,1570162026647042989,base_imu_link,-0.0350696130167,0.0610933828453,-0.306806273627,0.949161541192,0.0025,0.0,0.0,0.0,0.0025,0.0,0.0,0.0,0.0025,-0.04,-0.01,0.02,0.02,0.0,0.0,0.0,0.02,0.0,0.0,0.0,0.02,-0.93846484375,-1.08708703125,9.59072765625,0.04,0.0,0.0,0.0,0.04,0.0,0.0,0.0,0.04
1575431733576745487,21620,1570162026667037963,base_imu_link,-0.0353683971355,0.0612862553421,-0.306862112345,0.949119968917,0.0025,0.0,0.0,0.0,0.0025,0.0,0.0,0.0,0.0025,-0.03,-0.01,0.03,0.02,0.0,0.0,0.0,0.02,0.0,0.0,0.0,0.02,-0.871431640625,-1.00549804687,9.59072765625,0.04,0.0,0.0,0.0,0.04,0.0,0.0,0.0,0.04
1575431733626626702,21621,1570162026687077999,base_imu_link,-0.0353777953609,0.0610052251613,-0.306718705668,0.949184075768,0.0025,0.0,0.0,0.0,0.0025,0.0,0.0,0.0,0.0025,-0.03,-0.0,0.03,0.02,0.0,0.0,0.0,0.02,0.0,0.0,0.0,0.02,-0.8043984375,-0.986345703125,9.686489375,0.04,0.0,0.0,0.0,0.04,0.0,0.0,0.0,0.04
1575431733626639328,21622,1570162026707252025,base_imu_link,-0.0354121115333,0.0604338690605,-0.306183113495,0.949392242878,0.0025,0.0,0.0,0.0,0.0025,0.0,0.0,0.0,0.0025,-0.03,0.0,0.03,0.02,0.0,0.0,0.0,0.02,0.0,0.0,0.0,0.02,-0.813974609375,-1.05337890625,9.98296765625,0.04,0.0,0.0,0.0,0.04,0.0,0.0,0.0,0.04
1575431733626643430,21623,1570162026727042913,base_imu_link,-0.035548699635,0.059953067824,-0.306630906845,0.949273093783,0.0025,0.0,0.0,0.0,0.0025,0.0,0.0,0.0,0.0025,-0.03,0.01,0.03,0.02,0.0,0.0,0.0,0.02,0.0,0.0,0.0,0.02,-0.93386828125,-1.02465039062,9.68150976562,0.04,0.0,0.0,0.0,0.04,0.0,0.0,0.0,0.04
1575431733678100171,21624,1570162026747056007,base_imu_link,-0.0356034595497,0.0601297134753,-0.306200253781,0.949398870765,0.0025,0.0,0.0,0.0,0.0025,0.0,0.0,0.0,0.0025,-0.04,-0.0,0.03,0.02,0.0,0.0,0.0,0.02,0.0,0.0,0.0,0.02,-1.01507421875,-0.885987421875,9.71023828125,0.04,0.0,0.0,0.0,0.04,0.0,0.0,0.0,0.04
1575431733678115299,21625,1570162026767041921,base_imu_link,-0.0347779070336,0.0604122636459,-0.306208867173,0.94940875562,0.0025,0.0,0.0,0.0,0.0025,0.0,0.0,0.0,0.0025,-0.04,-0.01,0.02,0.02,0.0,0.0,0.0,0.02,0.0,0.0,0.0,0.02,-0.953020625,-1.0679346875,9.7676953125,0.04,0.0,0.0,0.0,0.04,0.0,0.0,0.0,0.04
1575431733678118917,21626,1570162026787038087,base_imu_link,-0.0349676139503,0.0605934632614,-0.306684523748,0.949236693917,0.0025,0.0,0.0,0.0,0.0025,0.0,0.0,0.0,0.0025,-0.03,-0.01,0.03,0.02,0.0,0.0,0.0,0.02,0.0,0.0,0.0,0.02,-0.905139765625,-1.06295507812,9.82515234375,0.04,0.0,0.0,0.0,0.04,0.0,0.0,0.0,0.04
1575431733728156394,21627,1570162026807013988,base_imu_link,-0.0352298385166,0.0604570002943,-0.306022363017,0.949449378812,0.0025,0.0,0.0,0.0,0.0025,0.0,0.0,0.0,0.0025,-0.03,-0.01,0.03,0.02,0.0,0.0,0.0,0.02,0.0,0.0,0.0,0.02,-0.871431640625,-0.9576171875,9.729390625,0.04,0.0,0.0,0.0,0.04,0.0,0.0,0.0,0.04
1575431733731918740,21628,1570162026826761960,base_imu_link,-0.0349849877287,0.0600989433555,-0.305977258971,0.949495700166,0.0025,0.0,0.0,0.0,0.0025,0.0,0.0,0.0,0.0025,-0.03,-0.0,0.03,0.02,0.0,0.0,0.0,0.02,0.0,0.0,0.0,0.02,-0.93846484375,-0.986345703125,9.7676953125,0.04,0.0,0.0,0.0,0.04,0.0,0.0,0.0,0.04
1575431733758450317,21629,1570162026847471952,base_imu_link,-0.0347379649304,0.06029372785,-0.305971118426,0.949494399596,0.0025,0.0,0.0,0.0,0.0025,0.0,0.0,0.0,0.0025,-0.03,0.01,0.03,0.02,0.0,0.0,0.0,0.02,0.0,0.0,0.0,0.02,-0.885987421875,-1.00549804687,9.67691320312,0.04,0.0,0.0,0.0,0.04,0.0,0.0,0.0,0.04
1575431733758463650,21630,1570162026866759061,base_imu_link,-0.034660364939,0.0602640021453,-0.305893518434,0.9495241253,0.0025,0.0,0.0,0.0,0.0025,0.0,0.0,0.0,0.0025,-0.03,0.01,0.03,0.02,0.0,0.0,0.0,0.02,0.0,0.0,0.0,0.02,-0.93846484375,-1.04380273437,9.63860851562,0.04,0.0,0.0,0.0,0.04,0.0,0.0,0.0,0.04
1575431733851936152,21631,1570162026886734962,base_imu_link,-0.0349323354994,0.0605392826397,-0.305944184693,0.949480322622,0.0025,0.0,0.0,0.0,0.0025,0.0,0.0,0.0,0.0025,-0.04,-0.0,0.03,0.02,0.0,0.0,0.0,0.02,0.0,0.0,0.0,0.02,-0.948041015625,-0.967193359375,9.61945617187,0.04,0.0,0.0,0.0,0.04,0.0,0.0,0.0,0.04
1575431733851941251,21632,1570162026906840085,base_imu_link,-0.03473951678,0.0605686115671,-0.305949187882,0.949483914398,0.0025,0.0,0.0,0.0,0.0025,0.0,0.0,0.0,0.0025,-0.04,-0.01,0.02,0.02,0.0,0.0,0.0,0.02,0.0,0.0,0.0,0.02,-1.04380273437,-1.01047765625,9.55701953125,0.04,0.0,0.0,0.0,0.04,0.0,0.0,0.0,0.04
1575431733851953269,21633,1570162026926817893,base_imu_link,-0.0346433239623,0.0611683388966,-0.305739160335,0.949516635062,0.0025,0.0,0.0,0.0,0.0025,0.0,0.0,0.0,0.0025,-0.04,-0.01,0.03,0.02,0.0,0.0,0.0,0.02,0.0,0.0,0.0,0.02,-0.87641125,-1.19702148438,9.71521789062,0.04,0.0,0.0,0.0,0.04,0.0,0.0,0.0,0.04
1575431733851959731,21634,1570162026946774005,base_imu_link,-0.0356524775384,0.0611371287043,-0.305868644226,0.949439584607,0.0025,0.0,0.0,0.0,0.0025,0.0,0.0,0.0,0.0025,-0.03,-0.01,0.03,0.02,0.0,0.0,0.0,0.02,0.0,0.0,0.0,0.02,-0.905139765625,-1.03920617187,9.65278125,0.04,0.0,0.0,0.0,0.04,0.0,0.0,0.0,0.04
1575431734035750320,21635,1570162026966782093,base_imu_link,-0.0356364706539,0.0611464604058,-0.306117196443,0.949359475847,0.0025,0.0,0.0,0.0,0.0025,0.0,0.0,0.0,0.0025,-0.03,0.0,0.03,0.02,0.0,0.0,0.0,0.02,0.0,0.0,0.0,0.02,-0.771073359375,-1.01047765625,9.62903234375,0.04,0.0,0.0,0.0,0.04,0.0,0.0,0.0,0.04
1575431734035821505,21636,1570162026986814022,base_imu_link,-0.035775911158,0.0604549050802,-0.306084778023,0.949408972622,0.0025,0.0,0.0,0.0,0.0025,0.0,0.0,0.0,0.0025,-0.03,0.01,0.03,0.02,0.0,0.0,0.0,0.02,0.0,0.0,0.0,0.02,-0.852279296875,-0.97217296875,9.63860851562,0.04,0.0,0.0,0.0,0.04,0.0,0.0,0.0,0.04
1575431734035869527,21637,1570162027007164001,base_imu_link,-0.0356486715194,0.0602453759613,-0.306355093494,0.949339888335,0.0025,0.0,0.0,0.0,0.0025,0.0,0.0,0.0,0.0025,-0.04,0.0,0.03,0.02,0.0,0.0,0.0,0.02,0.0,0.0,0.0,0.02,-0.9913253125,-0.986345703125,9.729390625,0.04,0.0,0.0,0.0,0.04,0.0,0.0,0.0,0.04
1575431734035892804,21638,1570162027026748895,base_imu_link,-0.035347284202,0.0606054749032,-0.306337600976,0.94933388233,0.0025,0.0,0.0,0.0,0.0025,0.0,0.0,0.0,0.0025,-0.04,-0.0,0.03,0.02,0.0,0.0,0.0,0.02,0.0,0.0,0.0,0.02,-1.04878234375,-0.943444453125,9.81557617187,0.04,0.0,0.0,0.0,0.04,0.0,0.0,0.0,0.04
1575431734035913108,21639,1570162027046827077,base_imu_link,-0.0347968176217,0.0609529090738,-0.305916297955,0.949467820942,0.0025,0.0,0.0,0.0,0.0025,0.0,0.0,0.0,0.0025,-0.04,-0.01,0.02,0.02,0.0,0.0,0.0,0.02,0.0,0.0,0.0,0.02,-0.962596796875,-1.05835851562,9.729390625,0.04,0.0,0.0,0.0,0.04,0.0,0.0,0.0,0.04
1575431734038781043,21640,1570162027066751956,base_imu_link,-0.0348709463949,0.0611930588531,-0.306474388106,0.94926965404,0.0025,0.0,0.0,0.0,0.0025,0.0,0.0,0.0,0.0025,-0.03,-0.01,0.03,0.02,0.0,0.0,0.0,0.02,0.0,0.0,0.0,0.02,-0.943444453125,-1.02465039062,9.68150976562,0.04,0.0,0.0,0.0,0.04,0.0,0.0,0.0,0.04
1575431734038794434,21641,1570162027086781978,base_imu_link,-0.0348816260673,0.0611869717928,-0.30630870463,0.949323129453,0.0025,0.0,0.0,0.0,0.0025,0.0,0.0,0.0,0.0025,-0.03,-0.01,0.03,0.02,0.0,0.0,0.0,0.02,0.0,0.0,0.0,0.02,-0.741961796875,-1.09168359375,9.76309875,0.04,0.0,0.0,0.0,0.04,0.0,0.0,0.0,0.04
1575431734038814029,21642,1570162027106786012,base_imu_link,-0.0355115479519,0.0603840691726,-0.306349141229,0.949338136714,0.0025,0.0,0.0,0.0,0.0025,0.0,0.0,0.0,0.0025,-0.03,0.0,0.03,0.02,0.0,0.0,0.0,0.02,0.0,0.0,0.0,0.02,-0.9193125,-0.953020625,9.70564171875,0.04,0.0,0.0,0.0,0.04,0.0,0.0,0.0,0.04
1575431734043020411,21643,1570162027126754045,base_imu_link,-0.0350483129795,0.0604127660927,-0.306281466475,0.949375361353,0.0025,0.0,0.0,0.0,0.0025,0.0,0.0,0.0,0.0025,-0.03,0.01,0.03,0.02,0.0,0.0,0.0,0.02,0.0,0.0,0.0,0.02,-0.962596796875,-1.04380273437,9.65776085937,0.04,0.0,0.0,0.0,0.04,0.0,0.0,0.0,0.04
1575431734043083980,21644,1570162027146639108,base_imu_link,-0.0352307815116,0.0607992275177,-0.305580384621,0.949569836559,0.0025,0.0,0.0,0.0,0.0025,0.0,0.0,0.0,0.0025,-0.04,0.0,0.03,0.02,0.0,0.0,0.0,0.02,0.0,0.0,0.0,0.02,-0.847682734375,-1.09168359375,9.79182726562,0.04,0.0,0.0,0.0,0.04,0.0,0.0,0.0,0.04
1575431734072194847,21645,1570162027166603088,base_imu_link,-0.0356765019374,0.0605046875275,-0.305918723091,0.949463061345,0.0025,0.0,0.0,0.0,0.0025,0.0,0.0,0.0,0.0025,-0.04,-0.0,0.03,0.02,0.0,0.0,0.0,0.02,0.0,0.0,0.0,0.02,-1.01047765625,-0.9913253125,9.65776085937,0.04,0.0,0.0,0.0,0.04,0.0,0.0,0.0,0.04
1575431734090657635,21646,1570162027186559915,base_imu_link,-0.0353540204514,0.0608772570256,-0.306232614482,0.949350113837,0.0025,0.0,0.0,0.0,0.0025,0.0,0.0,0.0,0.0025,-0.04,-0.01,0.02,0.02,0.0,0.0,0.0,0.02,0.0,0.0,0.0,0.02,-0.967193359375,-1.09666320312,9.93049023437,0.04,0.0,0.0,0.0,0.04,0.0,0.0,0.0,0.04
1575431734090661485,21647,1570162027206582069,base_imu_link,-0.0355754241111,0.0610401378644,-0.306211023176,0.949338348564,0.0025,0.0,0.0,0.0,0.0025,0.0,0.0,0.0,0.0025,-0.03,-0.01,0.02,0.02,0.0,0.0,0.0,0.02,0.0,0.0,0.0,0.02,-0.813974609375,-0.986345703125,9.5715753125,0.04,0.0,0.0,0.0,0.04,0.0,0.0,0.0,0.04
1575431734108860472,21648,1570162027226535081,base_imu_link,-0.0355943931975,0.0604108029485,-0.306343870559,0.949335034132,0.0025,0.0,0.0,0.0,0.0025,0.0,0.0,0.0,0.0025,-0.03,-0.01,0.03,0.02,0.0,0.0,0.0,0.02,0.0,0.0,0.0,0.02,-0.97676953125,-1.04380273437,9.74394640625,0.04,0.0,0.0,0.0,0.04,0.0,0.0,0.0,0.04
1575431734208830266,21649,1570162027246423959,base_imu_link,-0.0354805324585,0.0607447478893,-0.306404239782,0.949298503772,0.0025,0.0,0.0,0.0,0.0025,0.0,0.0,0.0,0.0025,-0.03,-0.0,0.03,0.02,0.0,0.0,0.0,0.02,0.0,0.0,0.0,0.02,-0.847682734375,-1.04380273437,9.73437023437,0.04,0.0,0.0,0.0,0.04,0.0,0.0,0.0,0.04
1575431734208850786,21650,1570162027266549110,base_imu_link,-0.0356870614541,0.0604984598817,-0.305753005867,0.949516439773,0.0025,0.0,0.0,0.0,0.0025,0.0,0.0,0.0,0.0025,-0.03,0.0,0.03,0.02,0.0,0.0,0.0,0.02,0.0,0.0,0.0,0.02,-0.871431640625,-0.986345703125,9.75352257812,0.04,0.0,0.0,0.0,0.04,0.0,0.0,0.0,0.04
1575431734208871210,21651,1570162027286637067,base_imu_link,-0.0354979122873,0.0602498531613,-0.305697166251,0.949557315786,0.0025,0.0,0.0,0.0,0.0025,0.0,0.0,0.0,0.0025,-0.03,0.01,0.03,0.02,0.0,0.0,0.0,0.02,0.0,0.0,0.0,0.02,-1.07253125,-1.00090148437,9.78225109375,0.04,0.0,0.0,0.0,0.04,0.0,0.0,0.0,0.04
1575431734208875762,21652,1570162027306433916,base_imu_link,-0.0351340601514,0.0609892356995,-0.306232018386,0.949351284753,0.0025,0.0,0.0,0.0,0.0025,0.0,0.0,0.0,0.0025,-0.04,-0.0,0.02,0.02,0.0,0.0,0.0,0.02,0.0,0.0,0.0,0.02,-0.986345703125,-1.07253125,9.729390625,0.04,0.0,0.0,0.0,0.04,0.0,0.0,0.0,0.04
1575431734273225357,21653,1570162027326558113,base_imu_link,-0.0352958430905,0.0613206183496,-0.306281977619,0.949307819104,0.0025,0.0,0.0,0.0,0.0025,0.0,0.0,0.0,0.0025,-0.04,-0.01,0.02,0.02,0.0,0.0,0.0,0.02,0.0,0.0,0.0,0.02,-0.928888671875,-0.924292109375,9.50913867187,0.04,0.0,0.0,0.0,0.04,0.0,0.0,0.0,0.04
1575431734273238400,21654,1570162027346328020,base_imu_link,-0.034948443098,0.0612228536159,-0.306551884809,0.949239859277,0.0025,0.0,0.0,0.0,0.0025,0.0,0.0,0.0,0.0025,-0.03,-0.01,0.03,0.02,0.0,0.0,0.0,0.02,0.0,0.0,0.0,0.02,-0.828530390625,-1.08708703125,9.81557617187,0.04,0.0,0.0,0.0,0.04,0.0,0.0,0.0,0.04
1575431734273487813,21655,1570162027366395950,base_imu_link,-0.0354188828276,0.0607056490201,-0.306078152165,0.949408495687,0.0025,0.0,0.0,0.0,0.0025,0.0,0.0,0.0,0.0025,-0.03,-0.01,0.03,0.02,0.0,0.0,0.0,0.02,0.0,0.0,0.0,0.02,-0.86185546875,-0.948041015625,9.67193359375,0.04,0.0,0.0,0.0,0.04,0.0,0.0,0.0,0.04
1575431734273521488,21656,1570162027386323928,base_imu_link,-0.0350859733612,0.0603239257129,-0.306121337899,0.949431263938,0.0025,0.0,0.0,0.0,0.0025,0.0,0.0,0.0,0.0025,-0.03,-0.0,0.03,0.02,0.0,0.0,0.0,0.02,0.0,0.0,0.0,0.02,-0.885987421875,-1.12998828125,9.65776085937,0.04,0.0,0.0,0.0,0.04,0.0,0.0,0.0,0.04
1575431734297012145,21657,1570162027406303882,base_imu_link,-0.0356448168681,0.0605233594055,-0.30641581883,0.949302752533,0.0025,0.0,0.0,0.0,0.0025,0.0,0.0,0.0,0.0025,-0.03,0.01,0.03,0.02,0.0,0.0,0.0,0.02,0.0,0.0,0.0,0.02,-0.85725890625,-0.928888671875,9.68150976562,0.04,0.0,0.0,0.0,0.04,0.0,0.0,0.0,0.04
1575431734314213295,21658,1570162027426558971,base_imu_link,-0.0353269294615,0.0601995811086,-0.305790541062,0.949536815235,0.0025,0.0,0.0,0.0,0.0025,0.0,0.0,0.0,0.0025,-0.03,0.0,0.03,0.02,0.0,0.0,0.0,0.02,0.0,0.0,0.0,0.02,-0.909736328125,-0.967193359375,9.60988,0.04,0.0,0.0,0.0,0.04,0.0,0.0,0.0,0.04
1575431734343953115,21659,1570162027446371078,base_imu_link,-0.0351454560407,0.0601554127946,-0.306049622498,0.94946287542,0.0025,0.0,0.0,0.0,0.0025,0.0,0.0,0.0,0.0025,-0.04,-0.0,0.02,0.02,0.0,0.0,0.0,0.02,0.0,0.0,0.0,0.02,-1.07253125,-0.995921875,9.79642382812,0.04,0.0,0.0,0.0,0.04,0.0,0.0,0.0,0.04
1575431734349231944,21660,1570162027466279029,base_imu_link,-0.034714513392,0.0608586406176,-0.3063414475,0.949339794787,0.0025,0.0,0.0,0.0,0.0025,0.0,0.0,0.0,0.0025,-0.04,-0.01,0.02,0.02,0.0,0.0,0.0,0.02,0.0,0.0,0.0,0.02,-0.909736328125,-1.00549804687,9.79642382812,0.04,0.0,0.0,0.0,0.04,0.0,0.0,0.0,0.04
1575431734367593381,21661,1570162027486334085,base_imu_link,-0.0348170866791,0.0605983490346,-0.306026757781,0.949454176931,0.0025,0.0,0.0,0.0,0.0025,0.0,0.0,0.0,0.0025,-0.03,-0.01,0.03,0.02,0.0,0.0,0.0,0.02,0.0,0.0,0.0,0.02,-0.8043984375,-1.08210742187,9.60988,0.04,0.0,0.0,0.0,0.04,0.0,0.0,0.0,0.04
1575431734393388430,21662,1570162027506381034,base_imu_link,-0.0353321827315,0.0601964980232,-0.305707677178,0.949563496878,0.0025,0.0,0.0,0.0,0.0025,0.0,0.0,0.0,0.0025,-0.03,-0.01,0.03,0.02,0.0,0.0,0.0,0.02,0.0,0.0,0.0,0.02,-0.8810078125,-1.0679346875,9.78225109375,0.04,0.0,0.0,0.0,0.04,0.0,0.0,0.0,0.04
1575431734444490849,21663,1570162027526194095,base_imu_link,-0.0355363424423,0.0600936909002,-0.305956936576,0.949482106014,0.0025,0.0,0.0,0.0,0.0025,0.0,0.0,0.0,0.0025,-0.03,-0.0,0.03,0.02,0.0,0.0,0.0,0.02,0.0,0.0,0.0,0.02,-0.775669921875,-1.04380273437,9.61945617187,0.04,0.0,0.0,0.0,0.04,0.0,0.0,0.0,0.04
1575431734444675753,21664,1570162027546243906,base_imu_link,-0.035781809243,0.0596240218296,-0.305985240481,0.949493375836,0.0025,0.0,0.0,0.0,0.0025,0.0,0.0,0.0,0.0025,-0.03,0.01,0.03,0.02,0.0,0.0,0.0,0.02,0.0,0.0,0.0,0.02,-0.89556359375,-0.905139765625,9.71521789062,0.04,0.0,0.0,0.0,0.04,0.0,0.0,0.0,0.04
1575431734500404106,21665,1570162027566246032,base_imu_link,-0.0351798846956,0.0595167578115,-0.305933208678,0.949539363629,0.0025,0.0,0.0,0.0,0.0025,0.0,0.0,0.0,0.0025,-0.03,0.0,0.03,0.02,0.0,0.0,0.0,0.02,0.0,0.0,0.0,0.02,-0.9913253125,-0.8810078125,9.79182726562,0.04,0.0,0.0,0.0,0.04,0.0,0.0,0.0,0.04
1575431734500418204,21666,1570162027586285114,base_imu_link,-0.0344539525228,0.0597495620718,-0.306107774051,0.949495100384,0.0025,0.0,0.0,0.0,0.0025,0.0,0.0,0.0,0.0025,-0.04,-0.0,0.03,0.02,0.0,0.0,0.0,0.02,0.0,0.0,0.0,0.02,-0.9147159375,-1.15871679687,9.66733703125,0.04,0.0,0.0,0.0,0.04,0.0,0.0,0.0,0.04
1575431734500539869,21667,1570162027606265068,base_imu_link,-0.0352101432148,0.0599838156867,-0.305895034404,0.949521150685,0.0025,0.0,0.0,0.0,0.0025,0.0,0.0,0.0,0.0025,-0.03,-0.01,0.02,0.02,0.0,0.0,0.0,0.02,0.0,0.0,0.0,0.02,-1.04878234375,-1.08210742187,9.91133789062,0.04,0.0,0.0,0.0,0.04,0.0,0.0,0.0,0.04
1575431734508341247,21668,1570162027626215934,base_imu_link,-0.0352644390578,0.0605787416737,-0.306342888635,0.949336963348,0.0025,0.0,0.0,0.0,0.0025,0.0,0.0,0.0,0.0025,-0.03,-0.01,0.02,0.02,0.0,0.0,0.0,0.02,0.0,0.0,0.0,0.02,-0.7277890625,-0.9576171875,9.729390625,0.04,0.0,0.0,0.0,0.04,0.0,0.0,0.0,0.04
1575431734530078812,21669,1570162027646287918,base_imu_link,-0.035279461462,0.0594668791068,-0.306099276987,0.949485272406,0.0025,0.0,0.0,0.0,0.0025,0.0,0.0,0.0,0.0025,-0.03,-0.01,0.03,0.02,0.0,0.0,0.0,0.02,0.0,0.0,0.0,0.02,-0.86185546875,-0.89556359375,9.63860851562,0.04,0.0,0.0,0.0,0.04,0.0,0.0,0.0,0.04
1575431734549605382,21670,1570162027666099071,base_imu_link,-0.034726552428,0.0591971490031,-0.306141035858,0.949509046966,0.0025,0.0,0.0,0.0,0.0025,0.0,0.0,0.0,0.0025,-0.03,-0.0,0.03,0.02,0.0,0.0,0.0,0.02,0.0,0.0,0.0,0.02,-0.89556359375,-0.97676953125,9.94006640625,0.04,0.0,0.0,0.0,0.04,0.0,0.0,0.0,0.04
1575431734567849577,21671,1570162027686110019,base_imu_link,-0.0344882876912,0.0591109809982,-0.305990796309,0.949571525748,0.0025,0.0,0.0,0.0,0.0025,0.0,0.0,0.0,0.0025,-0.03,0.0,0.03,0.02,0.0,0.0,0.0,0.02,0.0,0.0,0.0,0.02,-0.833126953125,-0.9913253125,9.56659570312,0.04,0.0,0.0,0.0,0.04,0.0,0.0,0.0,0.04
1575431734588173035,21672,1570162027706058979,base_imu_link,-0.0346047456256,0.0589842864882,-0.306328024462,0.94946643277,0.0025,0.0,0.0,0.0,0.0025,0.0,0.0,0.0,0.0025,-0.04,0.01,0.03,0.02,0.0,0.0,0.0,0.02,0.0,0.0,0.0,0.02,-0.962596796875,-0.93846484375,9.71023828125,0.04,0.0,0.0,0.0,0.04,0.0,0.0,0.0,0.04
1575431734612538320,21673,1570162027726284980,base_imu_link,-0.0342735443281,0.0592200649317,-0.305907332686,0.94959939547,0.0025,0.0,0.0,0.0,0.0025,0.0,0.0,0.0,0.0025,-0.04,-0.0,0.03,0.02,0.0,0.0,0.0,0.02,0.0,0.0,0.0,0.02,-0.995921875,-1.02005382812,9.66733703125,0.04,0.0,0.0,0.0,0.04,0.0,0.0,0.0,0.04
1575431734628512363,21674,1570162027746157884,base_imu_link,-0.034276776476,0.0597698955637,-0.305864124609,0.949578748423,0.0025,0.0,0.0,0.0,0.0025,0.0,0.0,0.0,0.0025,-0.04,-0.01,0.02,0.02,0.0,0.0,0.0,0.02,0.0,0.0,0.0,0.02,-0.928888671875,-1.15412023437,9.55701953125,0.04,0.0,0.0,0.0,0.04,0.0,0.0,0.0,0.04
1575431734653635943,21675,1570162027766089916,base_imu_link,-0.0350521046678,0.0601348233599,-0.306220579288,0.949412507711,0.0025,0.0,0.0,0.0,0.0025,0.0,0.0,0.0,0.0025,-0.03,-0.01,0.03,0.02,0.0,0.0,0.0,0.02,0.0,0.0,0.0,0.02,-0.866835078125,-1.08708703125,9.6144765625,0.04,0.0,0.0,0.0,0.04,0.0,0.0,0.0,0.04
1575431734671805473,21676,1570162027786087036,base_imu_link,-0.03546396749,0.0600608021766,-0.305796458485,0.949538589542,0.0025,0.0,0.0,0.0,0.0025,0.0,0.0,0.0,0.0025,-0.03,-0.0,0.03,0.02,0.0,0.0,0.0,0.02,0.0,0.0,0.0,0.02,-0.6511796875,-0.93386828125,9.71521789062,0.04,0.0,0.0,0.0,0.04,0.0,0.0,0.0,0.04
1575431734702624857,21677,1570162027806097984,base_imu_link,-0.0354507940172,0.0586893874833,-0.305988453502,0.949562985443,0.0025,0.0,0.0,0.0,0.0025,0.0,0.0,0.0,0.0025,-0.03,0.0,0.03,0.02,0.0,0.0,0.0,0.02,0.0,0.0,0.0,0.02,-0.85725890625,-0.953020625,9.52369445312,0.04,0.0,0.0,0.0,0.04,0.0,0.0,0.0,0.04
1575431734728598124,21678,1570162027826337099,base_imu_link,-0.0352007145619,0.0586766647552,-0.30558395838,0.949703323722,0.0025,0.0,0.0,0.0,0.0025,0.0,0.0,0.0,0.0025,-0.03,0.0,0.03,0.02,0.0,0.0,0.0,0.02,0.0,0.0,0.0,0.02,-0.909736328125,-1.01507421875,9.75352257812,0.04,0.0,0.0,0.0,0.04,0.0,0.0,0.0,0.04
1575431734785083912,21679,1570162027845916986,base_imu_link,-0.035261668119,0.0587830062062,-0.305490457907,0.949724566951,0.0025,0.0,0.0,0.0,0.0025,0.0,0.0,0.0,0.0025,-0.04,-0.0,0.03,0.02,0.0,0.0,0.0,0.02,0.0,0.0,0.0,0.02,-0.8810078125,-1.00090148437,9.63860851562,0.04,0.0,0.0,0.0,0.04,0.0,0.0,0.0,0.04
1575431734785105551,21680,1570162027866167068,base_imu_link,-0.0352257530471,0.0588045353646,-0.306070554597,0.949537776264,0.0025,0.0,0.0,0.0,0.0025,0.0,0.0,0.0,0.0025,-0.04,-0.01,0.02,0.02,0.0,0.0,0.0,0.02,0.0,0.0,0.0,0.02,-1.02005382812,-1.01047765625,9.75352257812,0.04,0.0,0.0,0.0,0.04,0.0,0.0,0.0,0.04
1575431734785113114,21681,1570162027886054039,base_imu_link,-0.0350671563499,0.0593653302373,-0.305534764642,0.949681293754,0.0025,0.0,0.0,0.0,0.0025,0.0,0.0,0.0,0.0025,-0.03,-0.01,0.03,0.02,0.0,0.0,0.0,0.02,0.0,0.0,0.0,0.02,-0.905139765625,-0.93386828125,9.8872059375,0.04,0.0,0.0,0.0,0.04,0.0,0.0,0.0,0.04
1575431734826011598,21682,1570162027906069993,base_imu_link,-0.0346643442666,0.0591583363981,-0.305814739734,0.949618881148,0.0025,0.0,0.0,0.0,0.0025,0.0,0.0,0.0,0.0025,-0.03,-0.01,0.03,0.02,0.0,0.0,0.0,0.02,0.0,0.0,0.0,0.02,-0.890583984375,-1.09168359375,9.5378671875,0.04,0.0,0.0,0.0,0.04,0.0,0.0,0.0,0.04
1575431734826218786,21683,1570162027926026105,base_imu_link,-0.0351292976858,0.0594042590063,-0.305861064494,0.949571522152,0.0025,0.0,0.0,0.0,0.0025,0.0,0.0,0.0,0.0025,-0.03,-0.0,0.03,0.02,0.0,0.0,0.0,0.02,0.0,0.0,0.0,0.02,-0.885987421875,-0.948041015625,9.70066210937,0.04,0.0,0.0,0.0,0.04,0.0,0.0,0.0,0.04
1575431734845274006,21684,1570162027945852994,base_imu_link,-0.0348340488419,0.0592762218882,-0.305301657134,0.949770402103,0.0025,0.0,0.0,0.0,0.0025,0.0,0.0,0.0,0.0025,-0.03,0.0,0.03,0.02,0.0,0.0,0.0,0.02,0.0,0.0,0.0,0.02,-0.924292109375,-1.01047765625,9.71023828125,0.04,0.0,0.0,0.0,0.04,0.0,0.0,0.0,0.04
1575431734874756614,21685,1570162027965881109,base_imu_link,-0.0347955425434,0.0594326266289,-0.305042001933,0.949845466467,0.0025,0.0,0.0,0.0,0.0025,0.0,0.0,0.0,0.0025,-0.03,0.0,0.03,0.02,0.0,0.0,0.0,0.02,0.0,0.0,0.0,0.02,-1.02005382812,-1.01507421875,9.59532421875,0.04,0.0,0.0,0.0,0.04,0.0,0.0,0.0,0.04
1575431734874768543,21686,1570162027985874891,base_imu_link,-0.0347294650992,0.0601570391716,-0.305236085927,0.949739925843,0.0025,0.0,0.0,0.0,0.0025,0.0,0.0,0.0,0.0025,-0.04,-0.0,0.03,0.02,0.0,0.0,0.0,0.02,0.0,0.0,0.0,0.02,-0.948041015625,-1.01047765625,9.73437023437,0.04,0.0,0.0,0.0,0.04,0.0,0.0,0.0,0.04
1575431734921319524,21687,1570162028005767107,base_imu_link,-0.0346648632378,0.0603285913721,-0.305390769222,0.949681676349,0.0025,0.0,0.0,0.0,0.0025,0.0,0.0,0.0,0.0025,-0.04,-0.01,0.03,0.02,0.0,0.0,0.0,0.02,0.0,0.0,0.0,0.02,-0.928888671875,-1.10125976562,9.65278125,0.04,0.0,0.0,0.0,0.04,0.0,0.0,0.0,0.04
1575431734921330457,21688,1570162028025830984,base_imu_link,-0.0351409940199,0.0605007555346,-0.305690615835,0.949556747388,0.0025,0.0,0.0,0.0,0.0025,0.0,0.0,0.0,0.0025,-0.03,-0.01,0.03,0.02,0.0,0.0,0.0,0.02,0.0,0.0,0.0,0.02,-0.8381065625,-1.106239375,9.7247940625,0.04,0.0,0.0,0.0,0.04,0.0,0.0,0.0,0.04
1575431734983284880,21689,1570162028045725107,base_imu_link,-0.0356907220354,0.0602204738142,-0.30569225462,0.949553533172,0.0025,0.0,0.0,0.0,0.0025,0.0,0.0,0.0,0.0025,-0.03,-0.01,0.03,0.02,0.0,0.0,0.0,0.02,0.0,0.0,0.0,0.02,-0.828530390625,-1.02005382812,9.69606554687,0.04,0.0,0.0,0.0,0.04,0.0,0.0,0.0,0.04
1575431734983294268,21690,1570162028065849065,base_imu_link,-0.0357370731583,0.0598503888245,-0.305388411172,0.949672949431,0.0025,0.0,0.0,0.0,0.0025,0.0,0.0,0.0,0.0025,-0.03,-0.0,0.03,0.02,0.0,0.0,0.0,0.02,0.0,0.0,0.0,0.02,-0.833126953125,-1.08210742187,9.45666125,0.04,0.0,0.0,0.0,0.04,0.0,0.0,0.0,0.04
1575431734983331749,21691,1570162028085786104,base_imu_link,-0.0361846635134,0.0598307831223,-0.30570499112,0.949555372752,0.0025,0.0,0.0,0.0,0.0025,0.0,0.0,0.0,0.0025,-0.03,0.01,0.03,0.02,0.0,0.0,0.0,0.02,0.0,0.0,0.0,0.02,-0.75153796875,-1.04380273437,9.55242296875,0.04,0.0,0.0,0.0,0.04,0.0,0.0,0.0,0.04
1575431735070360078,21692,1570162028105768918,base_imu_link,-0.0365284175441,0.0593781724521,-0.30547971737,0.949643116978,0.0025,0.0,0.0,0.0,0.0025,0.0,0.0,0.0,0.0025,-0.04,0.01,0.03,0.02,0.0,0.0,0.0,0.02,0.0,0.0,0.0,0.02,-0.97676953125,-0.995921875,9.59072765625,0.04,0.0,0.0,0.0,0.04,0.0,0.0,0.0,0.04
1575431735070413550,21693,1570162028125822067,base_imu_link,-0.0362779742592,0.0598511298983,-0.305534035955,0.949605551641,0.0025,0.0,0.0,0.0,0.0025,0.0,0.0,0.0,0.0025,-0.04,-0.0,0.03,0.02,0.0,0.0,0.0,0.02,0.0,0.0,0.0,0.02,-0.953020625,-1.01507421875,9.85847742187,0.04,0.0,0.0,0.0,0.04,0.0,0.0,0.0,0.04
1575431735070421680,21694,1570162028145889043,base_imu_link,-0.0360485847782,0.05990257389,-0.306118887795,0.949422670739,0.0025,0.0,0.0,0.0,0.0025,0.0,0.0,0.0,0.0025,-0.04,-0.01,0.02,0.02,0.0,0.0,0.0,0.02,0.0,0.0,0.0,0.02,-0.93846484375,-0.909736328125,9.59072765625,0.04,0.0,0.0,0.0,0.04,0.0,0.0,0.0,0.04
1575431735070426307,21695,1570162028165744066,base_imu_link,-0.0354962887459,0.0599749721023,-0.305719176739,0.949567691732,0.0025,0.0,0.0,0.0,0.0025,0.0,0.0,0.0,0.0025,-0.03,-0.01,0.03,0.02,0.0,0.0,0.0,0.02,0.0,0.0,0.0,0.02,-0.885987421875,-1.1108359375,9.73896679687,0.04,0.0,0.0,0.0,0.04,0.0,0.0,0.0,0.04
1575431735127977535,21696,1570162028185774087,base_imu_link,-0.0359647739014,0.0599428949977,-0.305704208419,0.949556907896,0.0025,0.0,0.0,0.0,0.0025,0.0,0.0,0.0,0.0025,-0.03,-0.01,0.03,0.02,0.0,0.0,0.0,0.02,0.0,0.0,0.0,0.02,-0.871431640625,-0.9913253125,9.60030382812,0.04,0.0,0.0,0.0,0.04,0.0,0.0,0.0,0.04
1575431735127995620,21697,1570162028205600976,base_imu_link,-0.0358209050576,0.0598099298901,-0.305803126802,0.949538878975,0.0025,0.0,0.0,0.0,0.0025,0.0,0.0,0.0,0.0025,-0.03,-0.0,0.03,0.02,0.0,0.0,0.0,0.02,0.0,0.0,0.0,0.02,-0.847682734375,-0.981749140625,9.59072765625,0.04,0.0,0.0,0.0,0.04,0.0,0.0,0.0,0.04
1575431735128000345,21698,1570162028225614070,base_imu_link,-0.0356926796612,0.0596675936224,-0.305653409393,0.949600865741,0.0025,0.0,0.0,0.0,0.0025,0.0,0.0,0.0,0.0025,-0.03,0.01,0.03,0.02,0.0,0.0,0.0,0.02,0.0,0.0,0.0,0.02,-0.948041015625,-0.9576171875,9.70564171875,0.04,0.0,0.0,0.0,0.04,0.0,0.0,0.0,0.04
1575431735158283503,21699,1570162028245655059,base_imu_link,-0.0352476912919,0.0598949329546,-0.305734867673,0.949576952097,0.0025,0.0,0.0,0.0,0.0025,0.0,0.0,0.0,0.0025,-0.03,0.01,0.03,0.02,0.0,0.0,0.0,0.02,0.0,0.0,0.0,0.02,-0.97217296875,-0.967193359375,9.82515234375,0.04,0.0,0.0,0.0,0.04,0.0,0.0,0.0,0.04
1575431735158418803,21700,1570162028265522956,base_imu_link,-0.0349178541444,0.0600631021593,-0.305733913754,0.949578823059,0.0025,0.0,0.0,0.0,0.0025,0.0,0.0,0.0,0.0025,-0.04,-0.0,0.03,0.02,0.0,0.0,0.0,0.02,0.0,0.0,0.0,0.02,-1.01047765625,-1.05337890625,9.54284679687,0.04,0.0,0.0,0.0,0.04,0.0,0.0,0.0,0.04
1575431735166675107,21701,1570162028285577058,base_imu_link,-0.0351027118253,0.060657032867,-0.30543084266,0.949631783555,0.0025,0.0,0.0,0.0,0.0025,0.0,0.0,0.0,0.0025,-0.04,-0.01,0.03,0.02,0.0,0.0,0.0,0.02,0.0,0.0,0.0,0.02,-0.89556359375,-1.02963,9.50454210937,0.04,0.0,0.0,0.0,0.04,0.0,0.0,0.0,0.04
1575431735190902969,21702,1570162028305527925,base_imu_link,-0.0352849318451,0.0606337605458,-0.305591588347,0.949574800528,0.0025,0.0,0.0,0.0,0.0025,0.0,0.0,0.0,0.0025,-0.03,-0.01,0.03,0.02,0.0,0.0,0.0,0.02,0.0,0.0,0.0,0.02,-0.833126953125,-0.943444453125,9.533270625,0.04,0.0,0.0,0.0,0.04,0.0,0.0,0.0,0.04
1575431735209729203,21703,1570162028325526952,base_imu_link,-0.0350407450142,0.06020837319,-0.305966452146,0.949490193814,0.0025,0.0,0.0,0.0,0.0025,0.0,0.0,0.0,0.0025,-0.03,-0.01,0.03,0.02,0.0,0.0,0.0,0.02,0.0,0.0,0.0,0.02,-0.8381065625,-1.09666320312,9.56199914062,0.04,0.0,0.0,0.0,0.04,0.0,0.0,0.0,0.04
1575431735290902801,21704,1570162028345603942,base_imu_link,-0.0355520737158,0.0600843854482,-0.30570835226,0.949562172814,0.0025,0.0,0.0,0.0,0.0025,0.0,0.0,0.0,0.0025,-0.03,0.0,0.03,0.02,0.0,0.0,0.0,0.02,0.0,0.0,0.0,0.02,-0.8381065625,-0.943444453125,9.58115148437,0.04,0.0,0.0,0.0,0.04,0.0,0.0,0.0,0.04
1575431735290918462,21705,1570162028365617036,base_imu_link,-0.0352591104812,0.0598214288727,-0.305989014795,0.949499296788,0.0025,0.0,0.0,0.0,0.0025,0.0,0.0,0.0,0.0025,-0.03,0.01,0.03,0.02,0.0,0.0,0.0,0.02,0.0,0.0,0.0,0.02,-0.909736328125,-0.995921875,9.79642382812,0.04,0.0,0.0,0.0,0.04,0.0,0.0,0.0,0.04
1575431735290922829,21706,1570162028385618925,base_imu_link,-0.035165814218,0.0598008645692,-0.306159948799,0.94944894958,0.0025,0.0,0.0,0.0,0.0025,0.0,0.0,0.0,0.0025,-0.03,0.0,0.03,0.02,0.0,0.0,0.0,0.02,0.0,0.0,0.0,0.02,-1.01047765625,-0.93386828125,9.62903234375,0.04,0.0,0.0,0.0,0.04,0.0,0.0,0.0,0.04
1575431735297538061,21707,1570162028405484914,base_imu_link,-0.034660364939,0.0602640021453,-0.305893518434,0.9495241253,0.0025,0.0,0.0,0.0,0.0025,0.0,0.0,0.0,0.0025,-0.04,-0.01,0.02,0.02,0.0,0.0,0.0,0.02,0.0,0.0,0.0,0.02,-0.986345703125,-1.02465039062,9.67691320312,0.04,0.0,0.0,0.0,0.04,0.0,0.0,0.0,0.04
1575431735342172093,21708,1570162028425458908,base_imu_link,-0.0347183722301,0.0605807342558,-0.306280601646,0.949377060141,0.0025,0.0,0.0,0.0,0.0025,0.0,0.0,0.0,0.0025,-0.04,-0.01,0.02,0.02,0.0,0.0,0.0,0.02,0.0,0.0,0.0,0.02,-0.981749140625,-1.05835851562,9.91133789062,0.04,0.0,0.0,0.0,0.04,0.0,0.0,0.0,0.04
1575431735349308517,21709,1570162028445396900,base_imu_link,-0.0347469566753,0.0607728951279,-0.306264174142,0.949369032493,0.0025,0.0,0.0,0.0,0.0025,0.0,0.0,0.0,0.0025,-0.03,-0.01,0.03,0.02,0.0,0.0,0.0,0.02,0.0,0.0,0.0,0.02,-0.86185546875,-1.02005382812,9.85388085937,0.04,0.0,0.0,0.0,0.04,0.0,0.0,0.0,0.04
1575431735368593975,21710,1570162028465351104,base_imu_link,-0.0347462704805,0.0604304650335,-0.306705934437,0.949248294897,0.0025,0.0,0.0,0.0,0.0025,0.0,0.0,0.0,0.0025,-0.03,-0.0,0.03,0.02,0.0,0.0,0.0,0.02,0.0,0.0,0.0,0.02,-0.852279296875,-0.967193359375,9.84890125,0.04,0.0,0.0,0.0,0.04,0.0,0.0,0.0,0.04
1575431735393234087,21711,1570162028485347986,base_imu_link,-0.0346064206853,0.0600193318121,-0.306743866089,0.949267231117,0.0025,0.0,0.0,0.0,0.0025,0.0,0.0,0.0,0.0025,-0.03,0.0,0.03,0.02,0.0,0.0,0.0,0.02,0.0,0.0,0.0,0.02,-0.828530390625,-0.995921875,9.686489375,0.04,0.0,0.0,0.0,0.04,0.0,0.0,0.0,0.04
1575431735393242542,21712,1570162028505357027,base_imu_link,-0.0346842917843,0.0596314731221,-0.305942638059,0.949547360343,0.0025,0.0,0.0,0.0,0.0025,0.0,0.0,0.0,0.0025,-0.03,0.0,0.03,0.02,0.0,0.0,0.0,0.02,0.0,0.0,0.0,0.02,-1.02465039062,-1.00090148437,9.729390625,0.04,0.0,0.0,0.0,0.04,0.0,0.0,0.0,0.04
1575431735417930742,21713,1570162028525285959,base_imu_link,-0.0344517612523,0.0603023666552,-0.306147082611,0.949447557547,0.0025,0.0,0.0,0.0,0.0025,0.0,0.0,0.0,0.0025,-0.04,0.0,0.03,0.02,0.0,0.0,0.0,0.02,0.0,0.0,0.0,0.02,-1.0342265625,-0.986345703125,9.63860851562,0.04,0.0,0.0,0.0,0.04,0.0,0.0,0.0,0.04
1575431735435103645,21714,1570162028545473098,base_imu_link,-0.0342406906313,0.0608933868662,-0.306439736238,0.94932305281,0.0025,0.0,0.0,0.0,0.0025,0.0,0.0,0.0,0.0025,-0.04,-0.01,0.03,0.02,0.0,0.0,0.0,0.02,0.0,0.0,0.0,0.02,-0.924292109375,-0.981749140625,9.95921875,0.04,0.0,0.0,0.0,0.04,0.0,0.0,0.0,0.04
1575431735449053459,21715,1570162028565376043,base_imu_link,-0.0341617264498,0.0605887790667,-0.306384089794,0.949363347627,0.0025,0.0,0.0,0.0,0.0025,0.0,0.0,0.0,0.0025,-0.04,-0.01,0.02,0.02,0.0,0.0,0.0,0.02,0.0,0.0,0.0,0.02,-0.905139765625,-1.02005382812,9.6481846875,0.04,0.0,0.0,0.0,0.04,0.0,0.0,0.0,0.04
1575431735467677086,21716,1570162028585366010,base_imu_link,-0.0342664294249,0.0605357895866,-0.306467175543,0.949336136628,0.0025,0.0,0.0,0.0,0.0025,0.0,0.0,0.0,0.0025,-0.03,-0.01,0.03,0.02,0.0,0.0,0.0,0.02,0.0,0.0,0.0,0.02,-0.8043984375,-1.11581554687,9.68150976562,0.04,0.0,0.0,0.0,0.04,0.0,0.0,0.0,0.04
1575431735569729720,21717,1570162028605321884,base_imu_link,-0.0349587612882,0.0601142027147,-0.306391525486,0.94936210202,0.0025,0.0,0.0,0.0,0.0025,0.0,0.0,0.0,0.0025,-0.03,-0.0,0.03,0.02,0.0,0.0,0.0,0.02,0.0,0.0,0.0,0.02,-0.905139765625,-0.986345703125,9.78684765625,0.04,0.0,0.0,0.0,0.04,0.0,0.0,0.0,0.04
1575431735569748091,21718,1570162028625335931,base_imu_link,-0.0348035478561,0.0600546529398,-0.306236312054,0.949421651795,0.0025,0.0,0.0,0.0,0.0025,0.0,0.0,0.0,0.0025,-0.03,0.0,0.03,0.02,0.0,0.0,0.0,0.02,0.0,0.0,0.0,0.02,-1.00549804687,-1.02465039062,9.68150976562,0.04,0.0,0.0,0.0,0.04,0.0,0.0,0.0,0.04
1575431735569760170,21719,1570162028645366907,base_imu_link,-0.0347124139054,0.0606513382887,-0.305943627303,0.949481416562,0.0025,0.0,0.0,0.0,0.0025,0.0,0.0,0.0,0.0025,-0.03,0.0,0.03,0.02,0.0,0.0,0.0,0.02,0.0,0.0,0.0,0.02,-0.948041015625,-0.967193359375,9.8014034375,0.04,0.0,0.0,0.0,0.04,0.0,0.0,0.0,0.04
1575431735569771529,21720,1570162028665241003,base_imu_link,-0.0344984112558,0.0606927132729,-0.306280073953,0.94937809669,0.0025,0.0,0.0,0.0,0.0025,0.0,0.0,0.0,0.0025,-0.04,-0.0,0.03,0.02,0.0,0.0,0.0,0.02,0.0,0.0,0.0,0.02,-1.05835851562,-0.97676953125,9.8443046875,0.04,0.0,0.0,0.0,0.04,0.0,0.0,0.0,0.04
1575431735635787835,21721,1570162028685309886,base_imu_link,-0.0340599397445,0.0611915487934,-0.306257193627,0.94936928864,0.0025,0.0,0.0,0.0,0.0025,0.0,0.0,0.0,0.0025,-0.04,-0.01,0.02,0.02,0.0,0.0,0.0,0.02,0.0,0.0,0.0,0.02,-1.06295507812,-0.97676953125,9.93508679687,0.04,0.0,0.0,0.0,0.04,0.0,0.0,0.0,0.04
1575431735635805402,21722,1570162028705339908,base_imu_link,-0.0337263446895,0.061569341091,-0.306737228927,0.949201781658,0.0025,0.0,0.0,0.0,0.0025,0.0,0.0,0.0,0.0025,-0.03,-0.01,0.03,0.02,0.0,0.0,0.0,0.02,0.0,0.0,0.0,0.02,-0.866835078125,-1.0679346875,9.7247940625,0.04,0.0,0.0,0.0,0.04,0.0,0.0,0.0,0.04
1575431735635850186,21723,1570162028725259065,base_imu_link,-0.0341427877142,0.0612182745423,-0.306251852491,0.949366312735,0.0025,0.0,0.0,0.0,0.0025,0.0,0.0,0.0,0.0025,-0.03,-0.01,0.03,0.02,0.0,0.0,0.0,0.02,0.0,0.0,0.0,0.02,-0.866835078125,-1.12041210937,9.68150976562,0.04,0.0,0.0,0.0,0.04,0.0,0.0,0.0,0.04
1575431735635870413,21724,1570162028745165109,base_imu_link,-0.0348419116783,0.0610684104749,-0.306071093856,0.949408856046,0.0025,0.0,0.0,0.0,0.0025,0.0,0.0,0.0,0.0025,-0.03,-0.0,0.03,0.02,0.0,0.0,0.0,0.02,0.0,0.0,0.0,0.02,-0.871431640625,-1.02465039062,9.90635828125,0.04,0.0,0.0,0.0,0.04,0.0,0.0,0.0,0.04
1575431735647942688,21725,1570162028765155076,base_imu_link,-0.0348032724658,0.0608148130686,-0.306673079435,0.949232275624,0.0025,0.0,0.0,0.0,0.0025,0.0,0.0,0.0,0.0025,-0.03,0.01,0.03,0.02,0.0,0.0,0.0,0.02,0.0,0.0,0.0,0.02,-0.986345703125,-0.995921875,9.73896679687,0.04,0.0,0.0,0.0,0.04,0.0,0.0,0.0,0.04
1575431735673651696,21726,1570162028785111904,base_imu_link,-0.0346384251011,0.0611037557253,-0.306241866812,0.949358957167,0.0025,0.0,0.0,0.0,0.0025,0.0,0.0,0.0,0.0025,-0.03,0.0,0.03,0.02,0.0,0.0,0.0,0.02,0.0,0.0,0.0,0.02,-1.0679346875,-0.943444453125,9.7676953125,0.04,0.0,0.0,0.0,0.04,0.0,0.0,0.0,0.04
1575431735688365390,21727,1570162028805118083,base_imu_link,-0.0340738222339,0.0616674904371,-0.306467210629,0.949270216572,0.0025,0.0,0.0,0.0,0.0025,0.0,0.0,0.0,0.0025,-0.03,-0.0,0.03,0.02,0.0,0.0,0.0,0.02,0.0,0.0,0.0,0.02,-0.89556359375,-0.981749140625,9.59072765625,0.04,0.0,0.0,0.0,0.04,0.0,0.0,0.0,0.04
1575431735706438795,21728,1570162028825113058,base_imu_link,-0.0341499299009,0.061422352742,-0.306566754976,0.949251232085,0.0025,0.0,0.0,0.0,0.0025,0.0,0.0,0.0,0.0025,-0.04,-0.01,0.03,0.02,0.0,0.0,0.0,0.02,0.0,0.0,0.0,0.02,-0.847682734375,-1.18284875,9.6144765625,0.04,0.0,0.0,0.0,0.04,0.0,0.0,0.0,0.04
1575431735731868249,21729,1570162028845238924,base_imu_link,-0.0352130002209,0.0612938899714,-0.306287327686,0.949310895632,0.0025,0.0,0.0,0.0,0.0025,0.0,0.0,0.0,0.0025,-0.03,-0.01,0.03,0.02,0.0,0.0,0.0,0.02,0.0,0.0,0.0,0.02,-0.85725890625,-1.07751085937,9.67691320312,0.04,0.0,0.0,0.0,0.04,0.0,0.0,0.0,0.04
1575431735750013834,21730,1570162028865155935,base_imu_link,-0.0355972388411,0.0609605331267,-0.306299510809,0.949314099582,0.0025,0.0,0.0,0.0,0.0025,0.0,0.0,0.0,0.0025,-0.03,-0.01,0.03,0.02,0.0,0.0,0.0,0.02,0.0,0.0,0.0,0.02,-0.866835078125,-0.9913253125,9.55242296875,0.04,0.0,0.0,0.0,0.04,0.0,0.0,0.0,0.04
1575431735775447535,21731,1570162028884943962,base_imu_link,-0.0355792829648,0.06076217392,-0.306150402184,0.949375586418,0.0025,0.0,0.0,0.0,0.0025,0.0,0.0,0.0,0.0025,-0.03,-0.0,0.03,0.02,0.0,0.0,0.0,0.02,0.0,0.0,0.0,0.02,-0.89556359375,-1.00549804687,9.77267492187,0.04,0.0,0.0,0.0,0.04,0.0,0.0,0.0,0.04
1575431735785980481,21732,1570162028905073881,base_imu_link,-0.035440710854,0.0606260230237,-0.306166616838,0.949384244698,0.0025,0.0,0.0,0.0,0.0025,0.0,0.0,0.0,0.0025,-0.03,0.0,0.03,0.02,0.0,0.0,0.0,0.02,0.0,0.0,0.0,0.02,-0.847682734375,-0.97217296875,9.67691320312,0.04,0.0,0.0,0.0,0.04,0.0,0.0,0.0,0.04
1575431735805589798,21733,1570162028925224065,base_imu_link,-0.0352682729654,0.0603007875788,-0.306282091887,0.949374132852,0.0025,0.0,0.0,0.0,0.0025,0.0,0.0,0.0,0.0025,-0.04,0.0,0.03,0.02,0.0,0.0,0.0,0.02,0.0,0.0,0.0,0.02,-1.01047765625,-0.981749140625,9.65278125,0.04,0.0,0.0,0.0,0.04,0.0,0.0,0.0,0.04
1575431735831741589,21734,1570162028945185899,base_imu_link,-0.0350332384943,0.0607642444429,-0.306088146337,0.9494158338,0.0025,0.0,0.0,0.0,0.0025,0.0,0.0,0.0,0.0025,-0.04,-0.0,0.03,0.02,0.0,0.0,0.0,0.02,0.0,0.0,0.0,0.02,-0.995921875,-0.9913253125,9.6481846875,0.04,0.0,0.0,0.0,0.04,0.0,0.0,0.0,0.04
1575431735847115760,21735,1570162028964987039,base_imu_link,-0.0348578981566,0.0610592867911,-0.305822528712,0.949488952734,0.0025,0.0,0.0,0.0,0.0025,0.0,0.0,0.0,0.0025,-0.04,-0.01,0.02,0.02,0.0,0.0,0.0,0.02,0.0,0.0,0.0,0.02,-0.847682734375,-0.953020625,9.54284679687,0.04,0.0,0.0,0.0,0.04,0.0,0.0,0.0,0.04
1575431735869712409,21736,1570162028984930992,base_imu_link,-0.0346965342328,0.0606604238988,-0.306192190469,0.949401288171,0.0025,0.0,0.0,0.0,0.0025,0.0,0.0,0.0,0.0025,-0.03,-0.01,0.03,0.02,0.0,0.0,0.0,0.02,0.0,0.0,0.0,0.02,-0.833126953125,-1.04380273437,9.60030382812,0.04,0.0,0.0,0.0,0.04,0.0,0.0,0.0,0.04
1575431735886971290,21737,1570162029005032062,base_imu_link,-0.0350701793921,0.0603331091319,-0.306369887929,0.949351089024,0.0025,0.0,0.0,0.0,0.0025,0.0,0.0,0.0,0.0025,-0.03,-0.01,0.03,0.02,0.0,0.0,0.0,0.02,0.0,0.0,0.0,0.02,-0.771073359375,-0.948041015625,9.69606554687,0.04,0.0,0.0,0.0,0.04,0.0,0.0,0.0,0.04
1575431735987040842,21738,1570162029024828910,base_imu_link,-0.0348782293308,0.0595346228085,-0.306357552531,0.949412548797,0.0025,0.0,0.0,0.0,0.0025,0.0,0.0,0.0,0.0025,-0.03,0.0,0.03,0.02,0.0,0.0,0.0,0.02,0.0,0.0,0.0,0.02,-0.905139765625,-0.93386828125,9.52369445312,0.04,0.0,0.0,0.0,0.04,0.0,0.0,0.0,0.04
1575431735987053030,21739,1570162029045030117,base_imu_link,-0.0345650110749,0.0596259000506,-0.306527830924,0.949363313448,0.0025,0.0,0.0,0.0,0.0025,0.0,0.0,0.0,0.0025,-0.03,0.0,0.03,0.02,0.0,0.0,0.0,0.02,0.0,0.0,0.0,0.02,-1.01047765625,-0.85725890625,9.95921875,0.04,0.0,0.0,0.0,0.04,0.0,0.0,0.0,0.04
1575431735991428402,21740,1570162029064855098,base_imu_link,-0.0336930983357,0.0598609005694,-0.305961908978,0.949562403406,0.0025,0.0,0.0,0.0,0.0025,0.0,0.0,0.0,0.0025,-0.04,0.0,0.03,0.02,0.0,0.0,0.0,0.02,0.0,0.0,0.0,0.02,-0.928888671875,-0.890583984375,9.65278125,0.04,0.0,0.0,0.0,0.04,0.0,0.0,0.0,0.04
1575431735991435815,21741,1570162029084880113,base_imu_link,-0.033236020522,0.0598188370453,-0.306231172768,0.949494361489,0.0025,0.0,0.0,0.0,0.0025,0.0,0.0,0.0,0.0025,-0.04,-0.0,0.02,0.02,0.0,0.0,0.0,0.02,0.0,0.0,0.0,0.02,-0.9193125,-1.19242492187,9.73437023437,0.04,0.0,0.0,0.0,0.04,0.0,0.0,0.0,0.04
1575431736038334345,21742,1570162029104789018,base_imu_link,-0.0343035717313,0.060104446068,-0.306748555828,0.949271322661,0.0025,0.0,0.0,0.0,0.0025,0.0,0.0,0.0,0.0025,-0.04,-0.01,0.02,0.02,0.0,0.0,0.0,0.02,0.0,0.0,0.0,0.02,-0.866835078125,-1.01047765625,9.63860851562,0.04,0.0,0.0,0.0,0.04,0.0,0.0,0.0,0.04
1575431736038346326,21743,1570162029124842882,base_imu_link,-0.0344626807738,0.0598860906196,-0.306842685632,0.949248937876,0.0025,0.0,0.0,0.0,0.0025,0.0,0.0,0.0,0.0025,-0.03,-0.01,0.03,0.02,0.0,0.0,0.0,0.02,0.0,0.0,0.0,0.02,-0.74694140625,-0.948041015625,9.59072765625,0.04,0.0,0.0,0.0,0.04,0.0,0.0,0.0,0.04
1575431736038351468,21744,1570162029144794940,base_imu_link,-0.0344160442832,0.0591530722646,-0.307150688128,0.949196978883,0.0025,0.0,0.0,0.0,0.0025,0.0,0.0,0.0,0.0025,-0.03,-0.0,0.03,0.02,0.0,0.0,0.0,0.02,0.0,0.0,0.0,0.02,-0.943444453125,-1.0342265625,9.70564171875,0.04,0.0,0.0,0.0,0.04,0.0,0.0,0.0,0.04
1575431736050254896,21745,1570162029164849042,base_imu_link,-0.0345156987191,0.0594457607495,-0.306875390942,0.949264116305,0.0025,0.0,0.0,0.0,0.0025,0.0,0.0,0.0,0.0025,-0.03,0.0,0.03,0.02,0.0,0.0,0.0,0.02,0.0,0.0,0.0,0.02,-0.9193125,-0.93386828125,9.66733703125,0.04,0.0,0.0,0.0,0.04,0.0,0.0,0.0,0.04
1575431736105424672,21746,1570162029184797048,base_imu_link,-0.0341236284977,0.059574868288,-0.306548352089,0.949375858592,0.0025,0.0,0.0,0.0,0.0025,0.0,0.0,0.0,0.0025,-0.03,0.01,0.03,0.02,0.0,0.0,0.0,0.02,0.0,0.0,0.0,0.02,-0.93846484375,-1.07253125,9.52369445312,0.04,0.0,0.0,0.0,0.04,0.0,0.0,0.0,0.04
1575431736105440058,21747,1570162029204775094,base_imu_link,-0.0345288165676,0.0599895501522,-0.306666261971,0.949297012777,0.0025,0.0,0.0,0.0,0.0025,0.0,0.0,0.0,0.0025,-0.03,0.0,0.03,0.02,0.0,0.0,0.0,0.02,0.0,0.0,0.0,0.02,-1.01507421875,-0.962596796875,9.78225109375,0.04,0.0,0.0,0.0,0.04,0.0,0.0,0.0,0.04
1575431736139053788,21748,1570162029224802970,base_imu_link,-0.0341234410271,0.0603347430513,-0.306985791701,0.949186511307,0.0025,0.0,0.0,0.0,0.0025,0.0,0.0,0.0,0.0025,-0.04,-0.01,0.03,0.02,0.0,0.0,0.0,0.02,0.0,0.0,0.0,0.02,-0.9913253125,-1.02005382812,9.64320507812,0.04,0.0,0.0,0.0,0.04,0.0,0.0,0.0,0.04
1575431736139080397,21749,1570162029244741916,base_imu_link,-0.0341644532795,0.0607280695053,-0.307201625258,0.949090118558,0.0025,0.0,0.0,0.0,0.0025,0.0,0.0,0.0,0.0025,-0.04,-0.01,0.02,0.02,0.0,0.0,0.0,0.02,0.0,0.0,0.0,0.02,-0.9913253125,-1.15412023437,9.95921875,0.04,0.0,0.0,0.0,0.04,0.0,0.0,0.0,0.04
1575431736225983377,21750,1570162029264764070,base_imu_link,-0.034668464591,0.0610931994132,-0.307484565479,0.948956774854,0.0025,0.0,0.0,0.0,0.0025,0.0,0.0,0.0,0.0025,-0.03,-0.01,0.03,0.02,0.0,0.0,0.0,0.02,0.0,0.0,0.0,0.02,-0.82355078125,-0.962596796875,9.78684765625,0.04,0.0,0.0,0.0,0.04,0.0,0.0,0.0,0.04
1575431736225995567,21751,1570162029284848928,base_imu_link,-0.0345384353953,0.0604010609235,-0.307379106623,0.949039985001,0.0025,0.0,0.0,0.0,0.0025,0.0,0.0,0.0,0.0025,-0.03,-0.0,0.03,0.02,0.0,0.0,0.0,0.02,0.0,0.0,0.0,0.02,-0.852279296875,-0.948041015625,9.66733703125,0.04,0.0,0.0,0.0,0.04,0.0,0.0,0.0,0.04
1575431736226000945,21752,1570162029304641008,base_imu_link,-0.0343978547518,0.0600575119712,-0.306997332328,0.949190455487,0.0025,0.0,0.0,0.0,0.0025,0.0,0.0,0.0,0.0025,-0.03,0.0,0.03,0.02,0.0,0.0,0.0,0.02,0.0,0.0,0.0,0.02,-0.722809453125,-0.962596796875,9.729390625,0.04,0.0,0.0,0.0,0.04,0.0,0.0,0.0,0.04
1575431736226031021,21753,1570162029324596881,base_imu_link,-0.0344212062315,0.059150068673,-0.307067853896,0.949223779222,0.0025,0.0,0.0,0.0,0.0025,0.0,0.0,0.0,0.0025,-0.03,0.01,0.03,0.02,0.0,0.0,0.0,0.02,0.0,0.0,0.0,0.02,-0.967193359375,-0.981749140625,9.64320507812,0.04,0.0,0.0,0.0,0.04,0.0,0.0,0.0,0.04
1575431736310399249,21754,1570162029344609022,base_imu_link,-0.034295679716,0.0595576242885,-0.30687480522,0.949265268333,0.0025,0.0,0.0,0.0,0.0025,0.0,0.0,0.0,0.0025,-0.03,-0.0,0.03,0.02,0.0,0.0,0.0,0.02,0.0,0.0,0.0,0.02,-0.871431640625,-1.05835851562,9.61945617187,0.04,0.0,0.0,0.0,0.04,0.0,0.0,0.0,0.04
1575431736310412727,21755,1570162029364600896,base_imu_link,-0.034650217512,0.0595174706726,-0.307361999305,0.949097273463,0.0025,0.0,0.0,0.0,0.0025,0.0,0.0,0.0,0.0025,-0.04,-0.01,0.02,0.02,0.0,0.0,0.0,0.02,0.0,0.0,0.0,0.02,-0.943444453125,-1.02005382812,9.70564171875,0.04,0.0,0.0,0.0,0.04,0.0,0.0,0.0,0.04
1575431736310434455,21756,1570162029384603023,base_imu_link,-0.0347510094138,0.0597425707277,-0.307506203576,0.949032732497,0.0025,0.0,0.0,0.0,0.0025,0.0,0.0,0.0,0.0025,-0.04,-0.01,0.03,0.02,0.0,0.0,0.0,0.02,0.0,0.0,0.0,0.02,-0.833126953125,-1.17786914062,9.65278125,0.04,0.0,0.0,0.0,0.04,0.0,0.0,0.0,0.04
1575431736310457438,21757,1570162029404521942,base_imu_link,-0.0357349696146,0.0596521064044,-0.306730876384,0.949252762767,0.0025,0.0,0.0,0.0,0.0025,0.0,0.0,0.0,0.0025,-0.03,-0.01,0.03,0.02,0.0,0.0,0.0,0.02,0.0,0.0,0.0,0.02,-0.885987421875,-1.04380273437,9.81557617187,0.04,0.0,0.0,0.0,0.04,0.0,0.0,0.0,0.04
1575431736316436781,21758,1570162029424560070,base_imu_link,-0.0357517377621,0.059575638781,-0.306902133229,0.949201578765,0.0025,0.0,0.0,0.0,0.0025,0.0,0.0,0.0,0.0025,-0.03,-0.0,0.03,0.02,0.0,0.0,0.0,0.02,0.0,0.0,0.0,0.02,-0.9147159375,-0.9193125,9.71521789062,0.04,0.0,0.0,0.0,0.04,0.0,0.0,0.0,0.04
1575431736334961968,21759,1570162029444586992,base_imu_link,-0.0352107726153,0.0595742051697,-0.306756523834,0.949268955911,0.0025,0.0,0.0,0.0,0.0025,0.0,0.0,0.0,0.0025,-0.03,0.0,0.03,0.02,0.0,0.0,0.0,0.02,0.0,0.0,0.0,0.02,-0.9576171875,-0.948041015625,9.83932507812,0.04,0.0,0.0,0.0,0.04,0.0,0.0,0.0,0.04
1575431736349254802,21760,1570162029464555025,base_imu_link,-0.0347098715483,0.0596915180084,-0.306848789093,0.949250213657,0.0025,0.0,0.0,0.0,0.0025,0.0,0.0,0.0,0.0025,-0.03,0.0,0.03,0.02,0.0,0.0,0.0,0.02,0.0,0.0,0.0,0.02,-1.06295507812,-0.93386828125,9.84890125,0.04,0.0,0.0,0.0,0.04,0.0,0.0,0.0,0.04
1575431736373462159,21761,1570162029484625101,base_imu_link,-0.0340563961666,0.0602990393804,-0.306742547988,0.949269823066,0.0025,0.0,0.0,0.0,0.0025,0.0,0.0,0.0,0.0025,-0.04,0.0,0.03,0.02,0.0,0.0,0.0,0.02,0.0,0.0,0.0,0.02,-1.00549804687,-0.928888671875,9.68150976562,0.04,0.0,0.0,0.0,0.04,0.0,0.0,0.0,0.04
1575431736390991560,21762,1570162029504611015,base_imu_link,-0.0336826301087,0.0606264057517,-0.306565213466,0.949319592786,0.0025,0.0,0.0,0.0,0.0025,0.0,0.0,0.0,0.0025,-0.04,-0.01,0.03,0.02,0.0,0.0,0.0,0.02,0.0,0.0,0.0,0.02,-1.01047765625,-1.07751085937,9.81557617187,0.04,0.0,0.0,0.0,0.04,0.0,0.0,0.0,0.04
1575431736475426564,21763,1570162029524575948,base_imu_link,-0.0340047370469,0.0610142323811,-0.30668781856,0.949243658526,0.0025,0.0,0.0,0.0,0.0025,0.0,0.0,0.0,0.0025,-0.04,-0.01,0.03,0.02,0.0,0.0,0.0,0.02,0.0,0.0,0.0,0.02,-0.890583984375,-1.0342265625,9.83932507812,0.04,0.0,0.0,0.0,0.04,0.0,0.0,0.0,0.04
1575431736475454324,21764,1570162029544404029,base_imu_link,-0.0341637728971,0.0607958607424,-0.306781943661,0.949221543677,0.0025,0.0,0.0,0.0,0.0025,0.0,0.0,0.0,0.0025,-0.03,-0.01,0.03,0.02,0.0,0.0,0.0,0.02,0.0,0.0,0.0,0.02,-0.85725890625,-1.02963,9.61945617187,0.04,0.0,0.0,0.0,0.04,0.0,0.0,0.0,0.04
1575431736475485154,21765,1570162029564430952,base_imu_link,-0.0343500272437,0.0604948129918,-0.306881621278,0.949201835097,0.0025,0.0,0.0,0.0,0.0025,0.0,0.0,0.0,0.0025,-0.03,-0.0,0.03,0.02,0.0,0.0,0.0,0.02,0.0,0.0,0.0,0.02,-0.771073359375,-1.10125976562,9.67193359375,0.04,0.0,0.0,0.0,0.04,0.0,0.0,0.0,0.04
1575431736475519186,21766,1570162029584403038,base_imu_link,-0.0350425374863,0.0600735189648,-0.306806046053,0.949227708714,0.0025,0.0,0.0,0.0,0.0025,0.0,0.0,0.0,0.0025,-0.03,0.01,0.03,0.02,0.0,0.0,0.0,0.02,0.0,0.0,0.0,0.02,-1.00549804687,-0.93386828125,9.82515234375,0.04,0.0,0.0,0.0,0.04,0.0,0.0,0.0,0.04
1575431736566335677,21767,1570162029604378938,base_imu_link,-0.0344494928564,0.0604449041453,-0.307047542136,0.949147750813,0.0025,0.0,0.0,0.0,0.0025,0.0,0.0,0.0,0.0025,-0.03,0.0,0.03,0.02,0.0,0.0,0.0,0.02,0.0,0.0,0.0,0.02,-1.04878234375,-0.986345703125,9.73437023437,0.04,0.0,0.0,0.0,0.04,0.0,0.0,0.0,0.04
1575431736566389086,21768,1570162029624408006,base_imu_link,-0.0342029011535,0.0609820694706,-0.306599874573,0.949267014948,0.0025,0.0,0.0,0.0,0.0025,0.0,0.0,0.0,0.0025,-0.04,-0.0,0.02,0.02,0.0,0.0,0.0,0.02,0.0,0.0,0.0,0.02,-0.97217296875,-1.0342265625,9.66733703125,0.04,0.0,0.0,0.0,0.04,0.0,0.0,0.0,0.04
1575431736566401846,21769,1570162029644398927,base_imu_link,-0.0343757186663,0.0612397486627,-0.306904091537,0.949145869584,0.0025,0.0,0.0,0.0,0.0025,0.0,0.0,0.0,0.0025,-0.04,-0.01,0.02,0.02,0.0,0.0,0.0,0.02,0.0,0.0,0.0,0.02,-0.93846484375,-1.106239375,9.5715753125,0.04,0.0,0.0,0.0,0.04,0.0,0.0,0.0,0.04
1575431736566410095,21770,1570162029664887905,base_imu_link,-0.0348405315753,0.0614186857453,-0.307368904446,0.948966932501,0.0025,0.0,0.0,0.0,0.0025,0.0,0.0,0.0,0.0025,-0.03,-0.01,0.03,0.02,0.0,0.0,0.0,0.02,0.0,0.0,0.0,0.02,-0.89556359375,-1.12998828125,9.68150976562,0.04,0.0,0.0,0.0,0.04,0.0,0.0,0.0,0.04
1575431736614250551,21771,1570162029684420108,base_imu_link,-0.0354746902272,0.0614410849699,-0.307342661147,0.948950487681,0.0025,0.0,0.0,0.0,0.0025,0.0,0.0,0.0,0.0025,-0.03,-0.01,0.03,0.02,0.0,0.0,0.0,0.02,0.0,0.0,0.0,0.02,-0.8810078125,-1.0679346875,9.62405273437,0.04,0.0,0.0,0.0,0.04,0.0,0.0,0.0,0.04
1575431736614411664,21772,1570162029704289913,base_imu_link,-0.0356840823176,0.0613356042527,-0.307508903267,0.948895602441,0.0025,0.0,0.0,0.0,0.0025,0.0,0.0,0.0,0.0025,-0.03,0.0,0.03,0.02,0.0,0.0,0.0,0.02,0.0,0.0,0.0,0.02,-0.885987421875,-1.05835851562,9.78684765625,0.04,0.0,0.0,0.0,0.04,0.0,0.0,0.0,0.04
1575431736614452492,21773,1570162029724309921,base_imu_link,-0.0358320715756,0.0611908447451,-0.307349289043,0.948951082876,0.0025,0.0,0.0,0.0,0.0025,0.0,0.0,0.0,0.0025,-0.03,0.01,0.03,0.02,0.0,0.0,0.0,0.02,0.0,0.0,0.0,0.02,-0.8381065625,-0.943444453125,9.55242296875,0.04,0.0,0.0,0.0,0.04,0.0,0.0,0.0,0.04
1575431736625620285,21774,1570162029744158983,base_imu_link,-0.0355984539588,0.0608262023099,-0.307139111007,0.949051363035,0.0025,0.0,0.0,0.0,0.0025,0.0,0.0,0.0,0.0025,-0.03,0.0,0.03,0.02,0.0,0.0,0.0,0.02,0.0,0.0,0.0,0.02,-1.07253125,-0.9147159375,9.729390625,0.04,0.0,0.0,0.0,0.04,0.0,0.0,0.0,0.04
1575431736647887916,21775,1570162029764410972,base_imu_link,-0.0347684328273,0.0613857952132,-0.307208631882,0.949023601773,0.0025,0.0,0.0,0.0,0.0025,0.0,0.0,0.0,0.0025,-0.04,-0.0,0.03,0.02,0.0,0.0,0.0,0.02,0.0,0.0,0.0,0.02,-0.948041015625,-1.09666320312,9.78684765625,0.04,0.0,0.0,0.0,0.04,0.0,0.0,0.0,0.04
1575431736670148442,21776,1570162029784367084,base_imu_link,-0.0352151026217,0.0614340804141,-0.307104645422,0.949037663674,0.0025,0.0,0.0,0.0,0.0025,0.0,0.0,0.0,0.0025,-0.04,-0.01,0.03,0.02,0.0,0.0,0.0,0.02,0.0,0.0,0.0,0.02,-0.948041015625,-1.07253125,9.60988,0.04,0.0,0.0,0.0,0.04,0.0,0.0,0.0,0.04
1575431736688922603,21777,1570162029804311037,base_imu_link,-0.03542021595,0.0616064352533,-0.30733132856,0.948945472576,0.0025,0.0,0.0,0.0,0.0025,0.0,0.0,0.0,0.0025,-0.03,-0.01,0.03,0.02,0.0,0.0,0.0,0.02,0.0,0.0,0.0,0.02,-0.924292109375,-0.943444453125,9.6144765625,0.04,0.0,0.0,0.0,0.04,0.0,0.0,0.0,0.04
1575431736708637909,21778,1570162029824229001,base_imu_link,-0.0349900624004,0.0614814932873,-0.307606607012,0.948880338525,0.0025,0.0,0.0,0.0,0.0025,0.0,0.0,0.0,0.0025,-0.03,-0.01,0.03,0.02,0.0,0.0,0.0,0.02,0.0,0.0,0.0,0.02,-0.8381065625,-1.01047765625,9.76309875,0.04,0.0,0.0,0.0,0.04,0.0,0.0,0.0,0.04
1575431736734551835,21779,1570162029844291925,base_imu_link,-0.0351027114851,0.0609402465501,-0.307148800785,0.949059376527,0.0025,0.0,0.0,0.0,0.0025,0.0,0.0,0.0,0.0025,-0.03,0.0,0.03,0.02,0.0,0.0,0.0,0.02,0.0,0.0,0.0,0.02,-0.9147159375,-1.08708703125,9.73437023437,0.04,0.0,0.0,0.0,0.04,0.0,0.0,0.0,0.04
1575431736760673066,21780,1570162029864269971,base_imu_link,-0.0353671474017,0.0610113988222,-0.306884364869,0.949130528799,0.0025,0.0,0.0,0.0,0.0025,0.0,0.0,0.0,0.0025,-0.03,0.01,0.03,0.02,0.0,0.0,0.0,0.02,0.0,0.0,0.0,0.02,-0.9576171875,-0.981749140625,9.686489375,0.04,0.0,0.0,0.0,0.04,0.0,0.0,0.0,0.04
1575431736802115006,21781,1570162029884094953,base_imu_link,-0.0351092339169,0.0612120455792,-0.307043796153,0.94907562102,0.0025,0.0,0.0,0.0,0.0025,0.0,0.0,0.0,0.0025,-0.04,0.0,0.03,0.02,0.0,0.0,0.0,0.02,0.0,0.0,0.0,0.02,-0.8810078125,-0.909736328125,9.73896679687,0.04,0.0,0.0,0.0,0.04,0.0,0.0,0.0,0.04
1575431736802165728,21782,1570162029904119968,base_imu_link,-0.0346832964078,0.0608092487267,-0.307258182958,0.949047792909,0.0025,0.0,0.0,0.0,0.0025,0.0,0.0,0.0,0.0025,-0.04,-0.0,0.03,0.02,0.0,0.0,0.0,0.02,0.0,0.0,0.0,0.02,-1.00549804687,-0.981749140625,9.56659570312,0.04,0.0,0.0,0.0,0.04,0.0,0.0,0.0,0.04
1575431736888332248,21783,1570162029924098014,base_imu_link,-0.0344590387049,0.0611988772355,-0.307318439329,0.949011406109,0.0025,0.0,0.0,0.0,0.0025,0.0,0.0,0.0,0.0025,-0.04,-0.01,0.03,0.02,0.0,0.0,0.0,0.02,0.0,0.0,0.0,0.02,-1.02005382812,-1.0342265625,9.62903234375,0.04,0.0,0.0,0.0,0.04,0.0,0.0,0.0,0.04
1575431736888346208,21784,1570162029944127082,base_imu_link,-0.034472384719,0.0616749467654,-0.307528189717,0.948912149865,0.0025,0.0,0.0,0.0,0.0025,0.0,0.0,0.0,0.0025,-0.03,-0.01,0.02,0.02,0.0,0.0,0.0,0.02,0.0,0.0,0.0,0.02,-0.87641125,-1.0342265625,9.47581359375,0.04,0.0,0.0,0.0,0.04,0.0,0.0,0.0,0.04
1575431736888350630,21785,1570162029964222908,base_imu_link,-0.0347086183825,0.0615541901351,-0.307280222576,0.948991706128,0.0025,0.0,0.0,0.0,0.0025,0.0,0.0,0.0,0.0025,-0.03,-0.0,0.03,0.02,0.0,0.0,0.0,0.02,0.0,0.0,0.0,0.02,-0.852279296875,-1.06295507812,9.61945617187,0.04,0.0,0.0,0.0,0.04,0.0,0.0,0.0,0.04
1575431736888354653,21786,1570162029984386920,base_imu_link,-0.0350499284824,0.0613130938915,-0.307535061728,0.94891221556,0.0025,0.0,0.0,0.0,0.0025,0.0,0.0,0.0,0.0025,-0.03,0.0,0.03,0.02,0.0,0.0,0.0,0.02,0.0,0.0,0.0,0.02,-0.871431640625,-0.9193125,9.69606554687,0.04,0.0,0.0,0.0,0.04,0.0,0.0,0.0,0.04
1575431736896073758,21787,1570162030004132032,base_imu_link,-0.0346560773057,0.0608919361134,-0.307252607001,0.94904529076,0.0025,0.0,0.0,0.0,0.0025,0.0,0.0,0.0,0.0025,-0.03,0.01,0.03,0.02,0.0,0.0,0.0,0.02,0.0,0.0,0.0,0.02,-0.93846484375,-1.00549804687,9.65776085937,0.04,0.0,0.0,0.0,0.04,0.0,0.0,0.0,0.04
1575431736915336450,21788,1570162030024087905,base_imu_link,-0.03460163831,0.0610573094951,-0.307241448067,0.94904026478,0.0025,0.0,0.0,0.0,0.0025,0.0,0.0,0.0,0.0025,-0.03,0.0,0.03,0.02,0.0,0.0,0.0,0.02,0.0,0.0,0.0,0.02,-0.9913253125,-1.02005382812,9.8872059375,0.04,0.0,0.0,0.0,0.04,0.0,0.0,0.0,0.04
1575431736964070069,21789,1570162030044085979,base_imu_link,-0.0344932250433,0.0613204224241,-0.307638756479,0.948898529207,0.0025,0.0,0.0,0.0,0.0025,0.0,0.0,0.0,0.0025,-0.04,-0.01,0.03,0.02,0.0,0.0,0.0,0.02,0.0,0.0,0.0,0.02,-1.02005382812,-0.9576171875,9.47581359375,0.04,0.0,0.0,0.0,0.04,0.0,0.0,0.0,0.04
1575431736966238619,21790,1570162030064049959,base_imu_link,-0.0342236172371,0.0616621811513,-0.307124666724,0.949052663728,0.0025,0.0,0.0,0.0,0.0025,0.0,0.0,0.0,0.0025,-0.04,-0.01,0.02,0.02,0.0,0.0,0.0,0.02,0.0,0.0,0.0,0.02,-0.9576171875,-0.995921875,9.68150976562,0.04,0.0,0.0,0.0,0.04,0.0,0.0,0.0,0.04
1575431736985712551,21791,1570162030084105014,base_imu_link,-0.0341300387152,0.0616413369876,-0.307295683375,0.949002027928,0.0025,0.0,0.0,0.0,0.0025,0.0,0.0,0.0,0.0025,-0.03,-0.01,0.03,0.02,0.0,0.0,0.0,0.02,0.0,0.0,0.0,0.02,-0.87641125,-0.97217296875,9.78225109375,0.04,0.0,0.0,0.0,0.04,0.0,0.0,0.0,0.04
1575431736988864802,21792,1570162030104132890,base_imu_link,-0.0339744670514,0.0612390457772,-0.307582464256,0.948940747646,0.0025,0.0,0.0,0.0,0.0025,0.0,0.0,0.0,0.0025,-0.03,-0.0,0.03,0.02,0.0,0.0,0.0,0.02,0.0,0.0,0.0,0.02,-0.871431640625,-0.97217296875,9.65776085937,0.04,0.0,0.0,0.0,0.04,0.0,0.0,0.0,0.04
1575431737007174278,21793,1570162030123850107,base_imu_link,-0.0338905876394,0.0609373232688,-0.307609740268,0.94895432893,0.0025,0.0,0.0,0.0,0.0025,0.0,0.0,0.0,0.0025,-0.03,0.0,0.03,0.02,0.0,0.0,0.0,0.02,0.0,0.0,0.0,0.02,-0.943444453125,-1.00549804687,9.76309875,0.04,0.0,0.0,0.0,0.04,0.0,0.0,0.0,0.04
1575431737109303951,21794,1570162030143927097,base_imu_link,-0.0338414249772,0.0610997296176,-0.307515868353,0.948976064876,0.0025,0.0,0.0,0.0,0.0025,0.0,0.0,0.0,0.0025,-0.03,0.01,0.03,0.02,0.0,0.0,0.0,0.02,0.0,0.0,0.0,0.02,-0.828530390625,-0.97676953125,9.87762976562,0.04,0.0,0.0,0.0,0.04,0.0,0.0,0.0,0.04
1575431737109319552,21795,1570162030163925886,base_imu_link,-0.0338717470223,0.0604643122328,-0.307482274558,0.949026565767,0.0025,0.0,0.0,0.0,0.0025,0.0,0.0,0.0,0.0025,-0.04,0.0,0.03,0.02,0.0,0.0,0.0,0.02,0.0,0.0,0.0,0.02,-0.995921875,-0.97676953125,9.64320507812,0.04,0.0,0.0,0.0,0.04,0.0,0.0,0.0,0.04
1575431737109325247,21796,1570162030183851957,base_imu_link,-0.0337409014915,0.060874803052,-0.307371923406,0.949040731803,0.0025,0.0,0.0,0.0,0.0025,0.0,0.0,0.0,0.0025,-0.04,-0.01,0.03,0.02,0.0,0.0,0.0,0.02,0.0,0.0,0.0,0.02,-0.981749140625,-0.97217296875,9.81557617187,0.04,0.0,0.0,0.0,0.04,0.0,0.0,0.0,0.04
1575431737109329767,21797,1570162030203866958,base_imu_link,-0.0335267759205,0.0609155513239,-0.307708304567,0.948936694519,0.0025,0.0,0.0,0.0,0.0025,0.0,0.0,0.0,0.0025,-0.04,-0.01,0.03,0.02,0.0,0.0,0.0,0.02,0.0,0.0,0.0,0.02,-0.885987421875,-1.24490234375,9.67193359375,0.04,0.0,0.0,0.0,0.04,0.0,0.0,0.0,0.04
1575431737166641329,21798,1570162030223859071,base_imu_link,-0.0348240217064,0.0610854709776,-0.30805912609,0.948765212042,0.0025,0.0,0.0,0.0,0.0025,0.0,0.0,0.0,0.0025,-0.03,-0.01,0.02,0.02,0.0,0.0,0.0,0.02,0.0,0.0,0.0,0.02,-0.928888671875,-1.10125976562,9.8443046875,0.04,0.0,0.0,0.0,0.04,0.0,0.0,0.0,0.04
1575431737166702552,21799,1570162030243808984,base_imu_link,-0.0351878269013,0.0611072699764,-0.307960619742,0.948782364445,0.0025,0.0,0.0,0.0,0.0025,0.0,0.0,0.0,0.0025,-0.03,-0.0,0.03,0.02,0.0,0.0,0.0,0.02,0.0,0.0,0.0,0.02,-0.809378046875,-1.02963,9.78225109375,0.04,0.0,0.0,0.0,0.04,0.0,0.0,0.0,0.04
1575431737166746542,21800,1570162030263839960,base_imu_link,-0.0352696194179,0.0605171390516,-0.308419214286,0.948668181234,0.0025,0.0,0.0,0.0,0.0025,0.0,0.0,0.0,0.0025,-0.03,0.0,0.03,0.02,0.0,0.0,0.0,0.02,0.0,0.0,0.0,0.02,-0.871431640625,-1.11581554687,9.50913867187,0.04,0.0,0.0,0.0,0.04,0.0,0.0,0.0,0.04
1575431737190718849,21801,1570162030283859014,base_imu_link,-0.0358544186362,0.0607024016683,-0.308299402733,0.948673367061,0.0025,0.0,0.0,0.0,0.0025,0.0,0.0,0.0,0.0025,-0.03,0.01,0.03,0.02,0.0,0.0,0.0,0.02,0.0,0.0,0.0,0.02,-0.89556359375,-1.07253125,9.73896679687,0.04,0.0,0.0,0.0,0.04,0.0,0.0,0.0,0.04
1575431737190735528,21802,1570162030303776979,base_imu_link,-0.0360949488226,0.060645226608,-0.307549295725,0.948911345626,0.0025,0.0,0.0,0.0,0.0025,0.0,0.0,0.0,0.0025,-0.04,0.0,0.03,0.02,0.0,0.0,0.0,0.02,0.0,0.0,0.0,0.02,-0.8810078125,-1.00549804687,9.75811914062,0.04,0.0,0.0,0.0,0.04,0.0,0.0,0.0,0.04
1575431737206764136,21803,1570162030323754072,base_imu_link,-0.036034979815,0.0604719139047,-0.308062713509,0.948758131667,0.0025,0.0,0.0,0.0,0.0025,0.0,0.0,0.0,0.0025,-0.04,-0.01,0.03,0.02,0.0,0.0,0.0,0.02,0.0,0.0,0.0,0.02,-0.986345703125,-1.04380273437,9.55242296875,0.04,0.0,0.0,0.0,0.04,0.0,0.0,0.0,0.04
1575431737225026530,21804,1570162030343838930,base_imu_link,-0.0360860873383,0.0608594662736,-0.308112242838,0.948715323729,0.0025,0.0,0.0,0.0,0.0025,0.0,0.0,0.0,0.0025,-0.04,-0.01,0.03,0.02,0.0,0.0,0.0,0.02,0.0,0.0,0.0,0.02,-0.97217296875,-0.953020625,9.79642382812,0.04,0.0,0.0,0.0,0.04,0.0,0.0,0.0,0.04
1575431737246953384,21805,1570162030363646984,base_imu_link,-0.0355134898858,0.0608758478202,-0.30846393687,0.948621590962,0.0025,0.0,0.0,0.0,0.0025,0.0,0.0,0.0,0.0025,-0.03,-0.01,0.03,0.02,0.0,0.0,0.0,0.02,0.0,0.0,0.0,0.02,-0.962596796875,-1.01507421875,9.76309875,0.04,0.0,0.0,0.0,0.04,0.0,0.0,0.0,0.04
1575431737266628396,21806,1570162030383759975,base_imu_link,-0.0352765962836,0.0610637998835,-0.308292090132,0.948674212394,0.0025,0.0,0.0,0.0,0.0025,0.0,0.0,0.0,0.0025,-0.03,-0.0,0.03,0.02,0.0,0.0,0.0,0.02,0.0,0.0,0.0,0.02,-0.847682734375,-1.02005382812,9.61945617187,0.04,0.0,0.0,0.0,0.04,0.0,0.0,0.0,0.04
1575431737288958047,21807,1570162030403784036,base_imu_link,-0.0354062922877,0.0607880501917,-0.307563797734,0.948923451994,0.0025,0.0,0.0,0.0,0.0025,0.0,0.0,0.0,0.0025,-0.03,0.01,0.03,0.02,0.0,0.0,0.0,0.02,0.0,0.0,0.0,0.02,-0.905139765625,-0.9913253125,9.74394640625,0.04,0.0,0.0,0.0,0.04,0.0,0.0,0.0,0.04
1575431737314862174,21808,1570162030423649072,base_imu_link,-0.0352300726796,0.0607405189896,-0.307740017342,0.948875920792,0.0025,0.0,0.0,0.0,0.0025,0.0,0.0,0.0,0.0025,-0.03,0.0,0.03,0.02,0.0,0.0,0.0,0.02,0.0,0.0,0.0,0.02,-0.924292109375,-0.986345703125,9.77267492187,0.04,0.0,0.0,0.0,0.04,0.0,0.0,0.0,0.04
1575431737338566201,21809,1570162030443831920,base_imu_link,-0.0350591659972,0.0606898670198,-0.307833418284,0.948855195227,0.0025,0.0,0.0,0.0,0.0025,0.0,0.0,0.0,0.0025,-0.04,-0.0,0.03,0.02,0.0,0.0,0.0,0.02,0.0,0.0,0.0,0.02,-0.986345703125,-1.03920617187,9.70066210937,0.04,0.0,0.0,0.0,0.04,0.0,0.0,0.0,0.04
1575431737347042496,21810,1570162030463694095,base_imu_link,-0.0350441968838,0.0609739146517,-0.308059690732,0.948764097625,0.0025,0.0,0.0,0.0,0.0025,0.0,0.0,0.0,0.0025,-0.04,-0.01,0.03,0.02,0.0,0.0,0.0,0.02,0.0,0.0,0.0,0.02,-0.93386828125,-0.97217296875,9.62405273437,0.04,0.0,0.0,0.0,0.04,0.0,0.0,0.0,0.04
1575431737365204128,21811,1570162030483630895,base_imu_link,-0.0348626557253,0.0609292762742,-0.308318704893,0.948689514405,0.0025,0.0,0.0,0.0,0.0025,0.0,0.0,0.0,0.0025,-0.03,-0.01,0.03,0.02,0.0,0.0,0.0,0.02,0.0,0.0,0.0,0.02,-0.89556359375,-1.1108359375,9.882609375,0.04,0.0,0.0,0.0,0.04,0.0,0.0,0.0,0.04
1575431737386421776,21812,1570162030503694057,base_imu_link,-0.0352863594607,0.0607827765054,-0.308148710135,0.948738477853,0.0025,0.0,0.0,0.0,0.0025,0.0,0.0,0.0,0.0025,-0.03,-0.01,0.03,0.02,0.0,0.0,0.0,0.02,0.0,0.0,0.0,0.02,-0.866835078125,-1.07751085937,9.70564171875,0.04,0.0,0.0,0.0,0.04,0.0,0.0,0.0,0.04
1575431737407337733,21813,1570162030523614883,base_imu_link,-0.0356264079681,0.0606763791335,-0.307564460411,0.948922145786,0.0025,0.0,0.0,0.0,0.0025,0.0,0.0,0.0,0.0025,-0.03,0.0,0.03,0.02,0.0,0.0,0.0,0.02,0.0,0.0,0.0,0.02,-0.74694140625,-0.97676953125,9.56199914062,0.04,0.0,0.0,0.0,0.04,0.0,0.0,0.0,0.04
1575431737426746745,21814,1570162030543623924,base_imu_link,-0.0356892310454,0.0599550432072,-0.307454316837,0.949001324888,0.0025,0.0,0.0,0.0,0.0025,0.0,0.0,0.0,0.0025,-0.03,0.01,0.03,0.02,0.0,0.0,0.0,0.02,0.0,0.0,0.0,0.02,-0.866835078125,-0.995921875,9.78684765625,0.04,0.0,0.0,0.0,0.04,0.0,0.0,0.0,0.04
1575431737451442165,21815,1570162030563616991,base_imu_link,-0.0355780603961,0.0597360086425,-0.30747594776,0.949012303629,0.0025,0.0,0.0,0.0,0.0025,0.0,0.0,0.0,0.0025,-0.04,0.0,0.03,0.02,0.0,0.0,0.0,0.02,0.0,0.0,0.0,0.02,-0.97217296875,-0.93386828125,9.73437023437,0.04,0.0,0.0,0.0,0.04,0.0,0.0,0.0,0.04
1575431737478377000,21816,1570162030583590030,base_imu_link,-0.0350278208175,0.0600152818766,-0.307474217383,0.949015712912,0.0025,0.0,0.0,0.0,0.0025,0.0,0.0,0.0,0.0025,-0.04,-0.0,0.03,0.02,0.0,0.0,0.0,0.02,0.0,0.0,0.0,0.02,-0.905139765625,-1.01047765625,9.79182726562,0.04,0.0,0.0,0.0,0.04,0.0,0.0,0.0,0.04
1575431737485714669,21817,1570162030603657960,base_imu_link,-0.0349629140445,0.0598444424084,-0.308070220591,0.948835589836,0.0025,0.0,0.0,0.0,0.0025,0.0,0.0,0.0,0.0025,-0.04,-0.01,0.03,0.02,0.0,0.0,0.0,0.02,0.0,0.0,0.0,0.02,-0.9576171875,-1.04380273437,9.78225109375,0.04,0.0,0.0,0.0,0.04,0.0,0.0,0.0,0.04
1575431737508608074,21818,1570162030623658895,base_imu_link,-0.0351053981316,0.0600451775879,-0.307551794697,0.948985817201,0.0025,0.0,0.0,0.0,0.0025,0.0,0.0,0.0,0.0025,-0.03,-0.01,0.02,0.02,0.0,0.0,0.0,0.02,0.0,0.0,0.0,0.02,-0.842703125,-0.97676953125,9.59532421875,0.04,0.0,0.0,0.0,0.04,0.0,0.0,0.0,0.04
1575431737526679139,21819,1570162030643547058,base_imu_link,-0.0350214810275,0.059743441437,-0.307578915397,0.948999171694,0.0025,0.0,0.0,0.0,0.0025,0.0,0.0,0.0,0.0025,-0.03,-0.01,0.03,0.02,0.0,0.0,0.0,0.02,0.0,0.0,0.0,0.02,-0.909736328125,-1.04380273437,9.66733703125,0.04,0.0,0.0,0.0,0.04,0.0,0.0,0.0,0.04
1575431737548619176,21820,1570162030663338899,base_imu_link,-0.0351389702368,0.0598920778984,-0.307894164399,0.948883225326,0.0025,0.0,0.0,0.0,0.0025,0.0,0.0,0.0,0.0025,-0.03,0.0,0.03,0.02,0.0,0.0,0.0,0.02,0.0,0.0,0.0,0.02,-0.953020625,-1.0342265625,9.73437023437,0.04,0.0,0.0,0.0,0.04,0.0,0.0,0.0,0.04
1575431737581099078,21821,1570162030683552980,base_imu_link,-0.035056175047,0.0602074859123,-0.307457841726,0.949007797014,0.0025,0.0,0.0,0.0,0.0025,0.0,0.0,0.0,0.0025,-0.03,0.0,0.03,0.02,0.0,0.0,0.0,0.02,0.0,0.0,0.0,0.02,-0.9193125,-0.924292109375,9.66733703125,0.04,0.0,0.0,0.0,0.04,0.0,0.0,0.0,0.04
1575431737590709854,21822,1570162030703353881,base_imu_link,-0.0345991081876,0.0601650742555,-0.307726989372,0.948940022111,0.0025,0.0,0.0,0.0,0.0025,0.0,0.0,0.0,0.0025,-0.04,0.0,0.03,0.02,0.0,0.0,0.0,0.02,0.0,0.0,0.0,0.02,-0.97217296875,-0.97676953125,9.729390625,0.04,0.0,0.0,0.0,0.04,0.0,0.0,0.0,0.04
1575431737608313598,21823,1570162030723408937,base_imu_link,-0.0344231155131,0.0604599298178,-0.307461656728,0.949013685701,0.0025,0.0,0.0,0.0,0.0025,0.0,0.0,0.0,0.0025,-0.04,-0.0,0.03,0.02,0.0,0.0,0.0,0.02,0.0,0.0,0.0,0.02,-0.967193359375,-0.967193359375,9.64320507812,0.04,0.0,0.0,0.0,0.04,0.0,0.0,0.0,0.04
1575431737623746033,21824,1570162030743359088,base_imu_link,-0.0342188741632,0.0605626837038,-0.307212687802,0.949095145097,0.0025,0.0,0.0,0.0,0.0025,0.0,0.0,0.0,0.0025,-0.04,-0.01,0.02,0.02,0.0,0.0,0.0,0.02,0.0,0.0,0.0,0.02,-0.82355078125,-1.12041210937,9.5378671875,0.04,0.0,0.0,0.0,0.04,0.0,0.0,0.0,0.04
1575431737655965560,21825,1570162030763379096,base_imu_link,-0.0350227830674,0.0603606345753,-0.307115411962,0.949110173897,0.0025,0.0,0.0,0.0,0.0025,0.0,0.0,0.0,0.0025,-0.03,-0.01,0.03,0.02,0.0,0.0,0.0,0.02,0.0,0.0,0.0,0.02,-0.842703125,-0.967193359375,9.75811914062,0.04,0.0,0.0,0.0,0.04,0.0,0.0,0.0,0.04
1575431737689739303,21826,1570162030783575057,base_imu_link,-0.0349103157654,0.0598667460579,-0.307158940087,0.949131512539,0.0025,0.0,0.0,0.0,0.0025,0.0,0.0,0.0,0.0025,-0.03,-0.01,0.03,0.02,0.0,0.0,0.0,0.02,0.0,0.0,0.0,0.02,-0.885987421875,-1.02005382812,9.6144765625,0.04,0.0,0.0,0.0,0.04,0.0,0.0,0.0,0.04
1575431737689754382,21827,1570162030803338050,base_imu_link,-0.0348946414917,0.0598758835055,-0.307407411607,0.949051065991,0.0025,0.0,0.0,0.0,0.0025,0.0,0.0,0.0,0.0025,-0.03,0.0,0.03,0.02,0.0,0.0,0.0,0.02,0.0,0.0,0.0,0.02,-0.8810078125,-1.04380273437,9.85388085937,0.04,0.0,0.0,0.0,0.04,0.0,0.0,0.0,0.04
1575431737721286894,21828,1570162030823383092,base_imu_link,-0.0350151248529,0.0598139087269,-0.307242088137,0.949104070496,0.0025,0.0,0.0,0.0,0.0025,0.0,0.0,0.0,0.0025,-0.03,0.01,0.03,0.02,0.0,0.0,0.0,0.02,0.0,0.0,0.0,0.02,-1.0342265625,-1.04380273437,9.6144765625,0.04,0.0,0.0,0.0,0.04,0.0,0.0,0.0,0.04
1575431737736409919,21829,1570162030843369007,base_imu_link,-0.0350239964463,0.0606355141771,-0.307093386905,0.949099734386,0.0025,0.0,0.0,0.0,0.0025,0.0,0.0,0.0,0.0025,-0.04,0.0,0.03,0.02,0.0,0.0,0.0,0.02,0.0,0.0,0.0,0.02,-0.924292109375,-0.953020625,9.729390625,0.04,0.0,0.0,0.0,0.04,0.0,0.0,0.0,0.04
1575431737751299562,21830,1570162030863362073,base_imu_link,-0.0346979779731,0.0605252869316,-0.307031707175,0.94913869943,0.0025,0.0,0.0,0.0,0.0025,0.0,0.0,0.0,0.0025,-0.04,-0.0,0.02,0.02,0.0,0.0,0.0,0.02,0.0,0.0,0.0,0.02,-0.986345703125,-1.05337890625,9.67193359375,0.04,0.0,0.0,0.0,0.04,0.0,0.0,0.0,0.04
1575431737767800796,21831,1570162030883434057,base_imu_link,-0.0348330009088,0.060871995814,-0.307496013073,0.94896125533,0.0025,0.0,0.0,0.0,0.0025,0.0,0.0,0.0,0.0025,-0.04,-0.01,0.03,0.02,0.0,0.0,0.0,0.02,0.0,0.0,0.0,0.02,-1.02005382812,-0.948041015625,9.6481846875,0.04,0.0,0.0,0.0,0.04,0.0,0.0,0.0,0.04
1575431737788572679,21832,1570162030903295993,base_imu_link,-0.0344318112913,0.0612815604089,-0.307312858667,0.949008865935,0.0025,0.0,0.0,0.0,0.0025,0.0,0.0,0.0,0.0025,-0.03,-0.01,0.03,0.02,0.0,0.0,0.0,0.02,0.0,0.0,0.0,0.02,-0.847682734375,-1.0679346875,9.69606554687,0.04,0.0,0.0,0.0,0.04,0.0,0.0,0.0,0.04
1575431737808318495,21833,1570162030923429012,base_imu_link,-0.0348542471212,0.0608598330946,-0.307164744379,0.949068533871,0.0025,0.0,0.0,0.0,0.0025,0.0,0.0,0.0,0.0025,-0.03,-0.01,0.03,0.02,0.0,0.0,0.0,0.02,0.0,0.0,0.0,0.02,-0.852279296875,-0.928888671875,9.59072765625,0.04,0.0,0.0,0.0,0.04,0.0,0.0,0.0,0.04
1575431737827012427,21834,1570162030943316936,base_imu_link,-0.0345112107834,0.0604837492378,-0.307373561458,0.94903750512,0.0025,0.0,0.0,0.0,0.0025,0.0,0.0,0.0,0.0025,-0.03,0.0,0.03,0.02,0.0,0.0,0.0,0.02,0.0,0.0,0.0,0.02,-0.70863671875,-0.924292109375,9.6144765625,0.04,0.0,0.0,0.0,0.04,0.0,0.0,0.0,0.04
1575431737924248543,21835,1570162030963190078,base_imu_link,-0.0344989172624,0.0595224518804,-0.306704217436,0.949315240285,0.0025,0.0,0.0,0.0,0.0025,0.0,0.0,0.0,0.0025,-0.03,0.01,0.03,0.02,0.0,0.0,0.0,0.02,0.0,0.0,0.0,0.02,-0.78524609375,-1.15871679687,9.66733703125,0.04,0.0,0.0,0.0,0.04,0.0,0.0,0.0,0.04
1575431737924269013,21836,1570162030983272075,base_imu_link,-0.0355161518885,0.0592783130609,-0.306271262485,0.949432777153,0.0025,0.0,0.0,0.0,0.0025,0.0,0.0,0.0,0.0025,-0.04,0.0,0.03,0.02,0.0,0.0,0.0,0.02,0.0,0.0,0.0,0.02,-0.928888671875,-0.8810078125,9.59532421875,0.04,0.0,0.0,0.0,0.04,0.0,0.0,0.0,0.04
1575431737924275923,21837,1570162031003115892,base_imu_link,-0.0348560718623,0.0592718832119,-0.306710660549,0.94931578983,0.0025,0.0,0.0,0.0,0.0025,0.0,0.0,0.0,0.0025,-0.04,-0.01,0.02,0.02,0.0,0.0,0.0,0.02,0.0,0.0,0.0,0.02,-0.905139765625,-0.967193359375,9.55701953125,0.04,0.0,0.0,0.0,0.04,0.0,0.0,0.0,0.04
1575431737924279373,21838,1570162031023099899,base_imu_link,-0.0347305393151,0.0593369284589,-0.306958853357,0.949236103878,0.0025,0.0,0.0,0.0,0.0025,0.0,0.0,0.0,0.0025,-0.03,-0.01,0.02,0.02,0.0,0.0,0.0,0.02,0.0,0.0,0.0,0.02,-0.885987421875,-1.17786914062,9.55701953125,0.04,0.0,0.0,0.0,0.04,0.0,0.0,0.0,0.04
1575431737973873545,21839,1570162031043109893,base_imu_link,-0.0356533130857,0.0595581923471,-0.307155821703,0.949124314399,0.0025,0.0,0.0,0.0,0.0025,0.0,0.0,0.0,0.0025,-0.03,-0.01,0.03,0.02,0.0,0.0,0.0,0.02,0.0,0.0,0.0,0.02,-0.81895421875,-0.948041015625,9.71521789062,0.04,0.0,0.0,0.0,0.04,0.0,0.0,0.0,0.04
1575431737973885764,21840,1570162031063158035,base_imu_link,-0.0353854726216,0.059004485671,-0.307043796534,0.949205165393,0.0025,0.0,0.0,0.0,0.0025,0.0,0.0,0.0,0.0025,-0.03,-0.0,0.03,0.02,0.0,0.0,0.0,0.02,0.0,0.0,0.0,0.02,-0.847682734375,-1.07751085937,9.7247940625,0.04,0.0,0.0,0.0,0.04,0.0,0.0,0.0,0.04
1575431737973890567,21841,1570162031083250045,base_imu_link,-0.0356766031654,0.0589928239947,-0.306785378831,0.949278546076,0.0025,0.0,0.0,0.0,0.0025,0.0,0.0,0.0,0.0025,-0.03,0.0,0.03,0.02,0.0,0.0,0.0,0.02,0.0,0.0,0.0,0.02,-0.995921875,-1.05337890625,9.65278125,0.04,0.0,0.0,0.0,0.04,0.0,0.0,0.0,0.04
1575431737985766077,21842,1570162031103776931,base_imu_link,-0.035713016539,0.0597316980152,-0.306642449913,0.949277152687,0.0025,0.0,0.0,0.0,0.0025,0.0,0.0,0.0,0.0025,-0.03,0.01,0.03,0.02,0.0,0.0,0.0,0.02,0.0,0.0,0.0,0.02,-1.02963,-1.03920617187,9.56199914062,0.04,0.0,0.0,0.0,0.04,0.0,0.0,0.0,0.04
1575431738005607080,21843,1570162031123123884,base_imu_link,-0.0356131220266,0.0605420146907,-0.306912830563,0.949142183465,0.0025,0.0,0.0,0.0,0.0025,0.0,0.0,0.0,0.0025,-0.04,0.0,0.03,0.02,0.0,0.0,0.0,0.02,0.0,0.0,0.0,0.02,-0.967193359375,-1.05337890625,9.77267492187,0.04,0.0,0.0,0.0,0.04,0.0,0.0,0.0,0.04
1575431738024628225,21844,1570162031143129110,base_imu_link,-0.0357243957771,0.0607609682506,-0.306890976093,0.949131076868,0.0025,0.0,0.0,0.0,0.0025,0.0,0.0,0.0,0.0025,-0.04,-0.01,0.02,0.02,0.0,0.0,0.0,0.02,0.0,0.0,0.0,0.02,-0.905139765625,-0.866835078125,9.82017273437,0.04,0.0,0.0,0.0,0.04,0.0,0.0,0.0,0.04
1575431738058451919,21845,1570162031163068056,base_imu_link,-0.0349030950883,0.060355165817,-0.307700401191,0.948925440179,0.0025,0.0,0.0,0.0,0.0025,0.0,0.0,0.0,0.0025,-0.04,-0.01,0.03,0.02,0.0,0.0,0.0,0.02,0.0,0.0,0.0,0.02,-0.885987421875,-1.149140625,9.62903234375,0.04,0.0,0.0,0.0,0.04,0.0,0.0,0.0,0.04
1575431738069860823,21846,1570162031183382987,base_imu_link,-0.0356253428348,0.0604015086902,-0.307586630358,0.948932535811,0.0025,0.0,0.0,0.0,0.0025,0.0,0.0,0.0,0.0025,-0.03,-0.01,0.03,0.02,0.0,0.0,0.0,0.02,0.0,0.0,0.0,0.02,-0.78524609375,-1.0679346875,9.74394640625,0.04,0.0,0.0,0.0,0.04,0.0,0.0,0.0,0.04
1575431738089172443,21847,1570162031203152894,base_imu_link,-0.0359406549814,0.0598245240727,-0.306958139957,0.949160679734,0.0025,0.0,0.0,0.0,0.0025,0.0,0.0,0.0,0.0025,-0.03,-0.0,0.03,0.02,0.0,0.0,0.0,0.02,0.0,0.0,0.0,0.02,-0.689484375,-0.9913253125,9.71023828125,0.04,0.0,0.0,0.0,0.04,0.0,0.0,0.0,0.04
1575431738114063486,21848,1570162031223067998,base_imu_link,-0.0360960988069,0.058781665251,-0.307118399052,0.949168097043,0.0025,0.0,0.0,0.0,0.0025,0.0,0.0,0.0,0.0025,-0.03,0.01,0.03,0.02,0.0,0.0,0.0,0.02,0.0,0.0,0.0,0.02,-0.967193359375,-1.00549804687,9.74394640625,0.04,0.0,0.0,0.0,0.04,0.0,0.0,0.0,0.04
1575431738155388704,21849,1570162031243102073,base_imu_link,-0.0357672843693,0.0592242787096,-0.307095285836,0.94916050887,0.0025,0.0,0.0,0.0,0.0025,0.0,0.0,0.0,0.0025,-0.03,0.0,0.03,0.02,0.0,0.0,0.0,0.02,0.0,0.0,0.0,0.02,-0.9913253125,-0.89556359375,10.078729375,0.04,0.0,0.0,0.0,0.04,0.0,0.0,0.0,0.04
1575431738155399507,21850,1570162031263721942,base_imu_link,-0.0349751533247,0.0593529011419,-0.3074458024,0.949068517212,0.0025,0.0,0.0,0.0,0.0025,0.0,0.0,0.0,0.0025,-0.04,-0.0,0.03,0.02,0.0,0.0,0.0,0.02,0.0,0.0,0.0,0.02,-0.885987421875,-0.948041015625,9.66733703125,0.04,0.0,0.0,0.0,0.04,0.0,0.0,0.0,0.04
1575431738247372146,21851,1570162031282907009,base_imu_link,-0.0347332438425,0.0592018421243,-0.307798101062,0.948972640619,0.0025,0.0,0.0,0.0,0.0025,0.0,0.0,0.0,0.0025,-0.04,-0.01,0.02,0.02,0.0,0.0,0.0,0.02,0.0,0.0,0.0,0.02,-1.00549804687,-1.106239375,9.7676953125,0.04,0.0,0.0,0.0,0.04,0.0,0.0,0.0,0.04
1575431738247966687,21852,1570162031302843093,base_imu_link,-0.0350979496743,0.0598407204293,-0.307236867219,0.949101011236,0.0025,0.0,0.0,0.0,0.0025,0.0,0.0,0.0,0.0025,-0.03,-0.01,0.03,0.02,0.0,0.0,0.0,0.02,0.0,0.0,0.0,0.02,-0.76609375,-0.97676953125,9.76309875,0.04,0.0,0.0,0.0,0.04,0.0,0.0,0.0,0.04
1575431738247972471,21853,1570162031322880029,base_imu_link,-0.0350943369664,0.0590159973563,-0.307302216741,0.94913162794,0.0025,0.0,0.0,0.0,0.0025,0.0,0.0,0.0,0.0025,-0.03,-0.01,0.03,0.02,0.0,0.0,0.0,0.02,0.0,0.0,0.0,0.02,-0.9193125,-1.02465039062,9.64320507812,0.04,0.0,0.0,0.0,0.04,0.0,0.0,0.0,0.04
1575431738247975179,21854,1570162031342943906,base_imu_link,-0.0351175847199,0.0592112783432,-0.307368849847,0.949097028709,0.0025,0.0,0.0,0.0,0.0025,0.0,0.0,0.0,0.0025,-0.03,-0.0,0.03,0.02,0.0,0.0,0.0,0.02,0.0,0.0,0.0,0.02,-0.943444453125,-1.07751085937,9.79182726562,0.04,0.0,0.0,0.0,0.04,0.0,0.0,0.0,0.04
1575431738296964693,21855,1570162031362956047,base_imu_link,-0.0352676026351,0.0596163685688,-0.307165489999,0.949131943703,0.0025,0.0,0.0,0.0,0.0025,0.0,0.0,0.0,0.0025,-0.03,0.01,0.03,0.02,0.0,0.0,0.0,0.02,0.0,0.0,0.0,0.02,-0.871431640625,-1.01047765625,9.78225109375,0.04,0.0,0.0,0.0,0.04,0.0,0.0,0.0,0.04
1575431738296998580,21856,1570162031382934093,base_imu_link,-0.035284412346,0.0595398292659,-0.307336693041,0.949080700514,0.0025,0.0,0.0,0.0,0.0025,0.0,0.0,0.0,0.0025,-0.04,0.0,0.03,0.02,0.0,0.0,0.0,0.02,0.0,0.0,0.0,0.02,-0.967193359375,-0.995921875,9.65776085937,0.04,0.0,0.0,0.0,0.04,0.0,0.0,0.0,0.04
1575431738297005627,21857,1570162031403249979,base_imu_link,-0.0350666123367,0.0598590894691,-0.307733773208,0.948940012295,0.0025,0.0,0.0,0.0,0.0025,0.0,0.0,0.0,0.0025,-0.04,-0.0,0.03,0.02,0.0,0.0,0.0,0.02,0.0,0.0,0.0,0.02,-0.981749140625,-1.03920617187,9.882609375,0.04,0.0,0.0,0.0,0.04,0.0,0.0,0.0,0.04
1575431738320129210,21858,1570162031422816991,base_imu_link,-0.0351043919978,0.0601125500208,-0.307132125692,0.949117495551,0.0025,0.0,0.0,0.0,0.0025,0.0,0.0,0.0,0.0025,-0.04,-0.01,0.02,0.02,0.0,0.0,0.0,0.02,0.0,0.0,0.0,0.02,-0.828530390625,-1.106239375,9.7247940625,0.04,0.0,0.0,0.0,0.04,0.0,0.0,0.0,0.04
1575431738340688297,21859,1570162031442816019,base_imu_link,-0.0356921640677,0.0597441605704,-0.306973791461,0.949170056448,0.0025,0.0,0.0,0.0,0.0025,0.0,0.0,0.0,0.0025,-0.03,-0.01,0.03,0.02,0.0,0.0,0.0,0.02,0.0,0.0,0.0,0.02,-0.871431640625,-1.12539171875,9.78225109375,0.04,0.0,0.0,0.0,0.04,0.0,0.0,0.0,0.04
1575431738352060630,21860,1570162031462905883,base_imu_link,-0.0361502685046,0.0597190105878,-0.307124595004,0.949105516265,0.0025,0.0,0.0,0.0,0.0025,0.0,0.0,0.0,0.0025,-0.03,-0.01,0.03,0.02,0.0,0.0,0.0,0.02,0.0,0.0,0.0,0.02,-0.833126953125,-1.149140625,9.58574804687,0.04,0.0,0.0,0.0,0.04,0.0,0.0,0.0,0.04
1575431738379947358,21861,1570162031482585906,base_imu_link,-0.0368116477903,0.0596585365484,-0.30710506202,0.949090218307,0.0025,0.0,0.0,0.0,0.0025,0.0,0.0,0.0,0.0025,-0.03,-0.0,0.03,0.02,0.0,0.0,0.0,0.02,0.0,0.0,0.0,0.02,-0.962596796875,-1.01507421875,9.56659570312,0.04,0.0,0.0,0.0,0.04,0.0,0.0,0.0,0.04
1575431738409206185,21862,1570162031502630949,base_imu_link,-0.0365551067572,0.060134265445,-0.307241921052,0.949025814316,0.0025,0.0,0.0,0.0,0.0025,0.0,0.0,0.0,0.0025,-0.03,0.01,0.03,0.02,0.0,0.0,0.0,0.02,0.0,0.0,0.0,0.02,-0.981749140625,-0.90016015625,9.85847742187,0.04,0.0,0.0,0.0,0.04,0.0,0.0,0.0,0.04
1575431738453614710,21863,1570162031522572994,base_imu_link,-0.0357262570475,0.0602752281907,-0.306432679022,0.949310036106,0.0025,0.0,0.0,0.0,0.0025,0.0,0.0,0.0,0.0025,-0.03,0.0,0.03,0.02,0.0,0.0,0.0,0.02,0.0,0.0,0.0,0.02,-1.08210742187,-1.00090148437,9.8443046875,0.04,0.0,0.0,0.0,0.04,0.0,0.0,0.0,0.04
1575431738453627534,21864,1570162031542670011,base_imu_link,-0.0353056055008,0.0609722976107,-0.306558359128,0.949240678434,0.0025,0.0,0.0,0.0,0.0025,0.0,0.0,0.0,0.0025,-0.04,-0.0,0.03,0.02,0.0,0.0,0.0,0.02,0.0,0.0,0.0,0.02,-0.9193125,-1.08708703125,9.66733703125,0.04,0.0,0.0,0.0,0.04,0.0,0.0,0.0,0.04
1575431738453665441,21865,1570162031562800884,base_imu_link,-0.0355996329781,0.0611010609252,-0.307116850445,0.949040866696,0.0025,0.0,0.0,0.0,0.0025,0.0,0.0,0.0,0.0025,-0.04,-0.01,0.02,0.02,0.0,0.0,0.0,0.02,0.0,0.0,0.0,0.02,-0.97217296875,-1.01507421875,9.78684765625,0.04,0.0,0.0,0.0,0.04,0.0,0.0,0.0,0.04
1575431738473281393,21866,1570162031582674026,base_imu_link,-0.0355216161786,0.0611383538628,-0.306619574413,0.949202166589,0.0025,0.0,0.0,0.0,0.0025,0.0,0.0,0.0,0.0025,-0.03,-0.01,0.03,0.02,0.0,0.0,0.0,0.02,0.0,0.0,0.0,0.02,-0.76609375,-1.04380273437,9.56199914062,0.04,0.0,0.0,0.0,0.04,0.0,0.0,0.0,0.04
1575431738496656065,21867,1570162031602606058,base_imu_link,-0.0358059687704,0.0605128854258,-0.306907897419,0.949138380743,0.0025,0.0,0.0,0.0,0.0025,0.0,0.0,0.0,0.0025,-0.03,-0.01,0.03,0.02,0.0,0.0,0.0,0.02,0.0,0.0,0.0,0.02,-0.93846484375,-1.02963,9.55701953125,0.04,0.0,0.0,0.0,0.04,0.0,0.0,0.0,0.04
1575431738518799806,21868,1570162031622641086,base_imu_link,-0.0357350000225,0.0607547322419,-0.306725316796,0.949184624991,0.0025,0.0,0.0,0.0,0.0025,0.0,0.0,0.0,0.0025,-0.03,0.0,0.03,0.02,0.0,0.0,0.0,0.02,0.0,0.0,0.0,0.02,-0.828530390625,-1.08708703125,9.82515234375,0.04,0.0,0.0,0.0,0.04,0.0,0.0,0.0,0.04
1575431738542379530,21869,1570162031642558097,base_imu_link,-0.0361457398132,0.0604057748475,-0.306323507096,0.949321092602,0.0025,0.0,0.0,0.0,0.0025,0.0,0.0,0.0,0.0025,-0.03,0.0,0.03,0.02,0.0,0.0,0.0,0.02,0.0,0.0,0.0,0.02,-0.8381065625,-0.93386828125,9.380051875,0.04,0.0,0.0,0.0,0.04,0.0,0.0,0.0,0.04
1575431738559546679,21870,1570162031662647008,base_imu_link,-0.0358791348354,0.0601271560567,-0.306190121017,0.949391922538,0.0025,0.0,0.0,0.0,0.0025,0.0,0.0,0.0,0.0025,-0.03,0.0,0.03,0.02,0.0,0.0,0.0,0.02,0.0,0.0,0.0,0.02,-1.02465039062,-0.93386828125,9.60030382812,0.04,0.0,0.0,0.0,0.04,0.0,0.0,0.0,0.04
1575431738592782208,21871,1570162031682744979,base_imu_link,-0.0353201442522,0.0606881873031,-0.306331993446,0.949331417959,0.0025,0.0,0.0,0.0,0.0025,0.0,0.0,0.0,0.0025,-0.04,-0.01,0.03,0.02,0.0,0.0,0.0,0.02,0.0,0.0,0.0,0.02,-1.04380273437,-1.00549804687,9.68150976562,0.04,0.0,0.0,0.0,0.04,0.0,0.0,0.0,0.04
1575431738592797246,21872,1570162031702780008,base_imu_link,-0.035053105078,0.0611699617412,-0.30663499383,0.949212566375,0.0025,0.0,0.0,0.0,0.0025,0.0,0.0,0.0,0.0025,-0.04,-0.01,0.02,0.02,0.0,0.0,0.0,0.02,0.0,0.0,0.0,0.02,-0.995921875,-0.943444453125,9.82974890625,0.04,0.0,0.0,0.0,0.04,0.0,0.0,0.0,0.04
1575431738613732540,21873,1570162031722580909,base_imu_link,-0.0345788108539,0.0612722010384,-0.306313544743,0.949327148841,0.0025,0.0,0.0,0.0,0.0025,0.0,0.0,0.0,0.0025,-0.03,-0.01,0.02,0.02,0.0,0.0,0.0,0.02,0.0,0.0,0.0,0.02,-0.9193125,-1.12041210937,9.59532421875,0.04,0.0,0.0,0.0,0.04,0.0,0.0,0.0,0.04
1575431738626391870,21874,1570162031742574930,base_imu_link,-0.0350812334942,0.0614295168478,-0.306198576709,0.949335637769,0.0025,0.0,0.0,0.0,0.0025,0.0,0.0,0.0,0.0025,-0.03,-0.0,0.03,0.02,0.0,0.0,0.0,0.02,0.0,0.0,0.0,0.02,-0.732385625,-0.986345703125,9.52369445312,0.04,0.0,0.0,0.0,0.04,0.0,0.0,0.0,0.04
1575431738646921753,21875,1570162031762595891,base_imu_link,-0.0352961531774,0.0605602689534,-0.305845774993,0.949497233969,0.0025,0.0,0.0,0.0,0.0025,0.0,0.0,0.0,0.0025,-0.03,0.0,0.03,0.02,0.0,0.0,0.0,0.02,0.0,0.0,0.0,0.02,-0.890583984375,-0.924292109375,9.7676953125,0.04,0.0,0.0,0.0,0.04,0.0,0.0,0.0,0.04
1575431738669254207,21876,1570162031782382011,base_imu_link,-0.0347945007496,0.0603356163456,-0.306380120265,0.949357771351,0.0025,0.0,0.0,0.0,0.0025,0.0,0.0,0.0,0.0025,-0.03,0.01,0.03,0.02,0.0,0.0,0.0,0.02,0.0,0.0,0.0,0.02,-0.93846484375,-1.01047765625,9.78684765625,0.04,0.0,0.0,0.0,0.04,0.0,0.0,0.0,0.04
1575431738696823656,21877,1570162031802342891,base_imu_link,-0.0346950553577,0.0603855416513,-0.306214137971,0.94941178695,0.0025,0.0,0.0,0.0,0.0025,0.0,0.0,0.0,0.0025,-0.04,0.0,0.03,0.02,0.0,0.0,0.0,0.02,0.0,0.0,0.0,0.02,-0.948041015625,-0.948041015625,9.89678210937,0.04,0.0,0.0,0.0,0.04,0.0,0.0,0.0,0.04
1575431738717543206,21878,1570162031822478055,base_imu_link,-0.0343312554469,0.060364368235,-0.306312528847,0.949394619017,0.0025,0.0,0.0,0.0,0.0025,0.0,0.0,0.0,0.0025,-0.04,-0.01,0.03,0.02,0.0,0.0,0.0,0.02,0.0,0.0,0.0,0.02,-0.93386828125,-1.02005382812,9.73437023437,0.04,0.0,0.0,0.0,0.04,0.0,0.0,0.0,0.04
1575431738737380014,21879,1570162031842421054,base_imu_link,-0.0343666639586,0.0604181089624,-0.30705281578,0.949150753484,0.0025,0.0,0.0,0.0,0.0025,0.0,0.0,0.0,0.0025,-0.03,-0.01,0.02,0.02,0.0,0.0,0.0,0.02,0.0,0.0,0.0,0.02,-0.86185546875,-1.11581554687,9.55701953125,0.04,0.0,0.0,0.0,0.04,0.0,0.0,0.0,0.04
1575431738795837544,21880,1570162031862435102,base_imu_link,-0.0350868014676,0.0602565181192,-0.30654114837,0.949300054115,0.0025,0.0,0.0,0.0,0.0025,0.0,0.0,0.0,0.0025,-0.03,-0.01,0.03,0.02,0.0,0.0,0.0,0.02,0.0,0.0,0.0,0.02,-0.8043984375,-1.02465039062,9.59072765625,0.04,0.0,0.0,0.0,0.04,0.0,0.0,0.0,0.04
1575431738795897175,21881,1570162031882426977,base_imu_link,-0.0352949542838,0.0598758702804,-0.30672943136,0.949255604302,0.0025,0.0,0.0,0.0,0.0025,0.0,0.0,0.0,0.0025,-0.03,-0.0,0.03,0.02,0.0,0.0,0.0,0.02,0.0,0.0,0.0,0.02,-0.82355078125,-1.13496789062,9.82017273437,0.04,0.0,0.0,0.0,0.04,0.0,0.0,0.0,0.04
1575431738795918970,21882,1570162031902422904,base_imu_link,-0.0359174041449,0.0596292024004,-0.306891730644,0.949195324453,0.0025,0.0,0.0,0.0,0.0025,0.0,0.0,0.0,0.0025,-0.03,0.0,0.03,0.02,0.0,0.0,0.0,0.02,0.0,0.0,0.0,0.02,-1.05835851562,-1.02005382812,9.82017273437,0.04,0.0,0.0,0.0,0.04,0.0,0.0,0.0,0.04
1575431738809695888,21883,1570162031922368049,base_imu_link,-0.0355733036811,0.060423224055,-0.30667523233,0.949228042114,0.0025,0.0,0.0,0.0,0.0025,0.0,0.0,0.0,0.0025,-0.03,0.0,0.03,0.02,0.0,0.0,0.0,0.02,0.0,0.0,0.0,0.02,-0.953020625,-1.05337890625,9.70066210937,0.04,0.0,0.0,0.0,0.04,0.0,0.0,0.0,0.04
1575431738825088627,21884,1570162031942353010,base_imu_link,-0.0356468682515,0.0607310761846,-0.306813448567,0.949160968934,0.0025,0.0,0.0,0.0,0.0025,0.0,0.0,0.0,0.0025,-0.04,0.0,0.03,0.02,0.0,0.0,0.0,0.02,0.0,0.0,0.0,0.02,-0.9147159375,-1.01507421875,9.63860851562,0.04,0.0,0.0,0.0,0.04,0.0,0.0,0.0,0.04
1575431738923366084,21885,1570162031962418079,base_imu_link,-0.0356680652241,0.0607186293805,-0.306482110201,0.949268009203,0.0025,0.0,0.0,0.0,0.0025,0.0,0.0,0.0,0.0025,-0.04,-0.01,0.03,0.02,0.0,0.0,0.0,0.02,0.0,0.0,0.0,0.02,-1.02005382812,-0.909736328125,9.70066210937,0.04,0.0,0.0,0.0,0.04,0.0,0.0,0.0,0.04
1575431738923381504,21886,1570162031982327938,base_imu_link,-0.0350299314234,0.0609747431496,-0.306568708053,0.94924739233,0.0025,0.0,0.0,0.0,0.0025,0.0,0.0,0.0,0.0025,-0.04,-0.01,0.03,0.02,0.0,0.0,0.0,0.02,0.0,0.0,0.0,0.02,-0.81895421875,-1.13496789062,9.686489375,0.04,0.0,0.0,0.0,0.04,0.0,0.0,0.0,0.04
1575431738923385862,21887,1570162032002525091,base_imu_link,-0.0357065208774,0.0605625666161,-0.306741885415,0.949192623035,0.0025,0.0,0.0,0.0,0.0025,0.0,0.0,0.0,0.0025,-0.03,-0.01,0.03,0.02,0.0,0.0,0.0,0.02,0.0,0.0,0.0,0.02,-0.81895421875,-1.12041210937,9.67691320312,0.04,0.0,0.0,0.0,0.04,0.0,0.0,0.0,0.04
1575431738923397772,21888,1570162032022329092,base_imu_link,-0.0363393960391,0.0603096783046,-0.30673847835,0.949185807362,0.0025,0.0,0.0,0.0,0.0025,0.0,0.0,0.0,0.0025,-0.03,-0.0,0.03,0.02,0.0,0.0,0.0,0.02,0.0,0.0,0.0,0.02,-0.909736328125,-0.981749140625,9.62903234375,0.04,0.0,0.0,0.0,0.04,0.0,0.0,0.0,0.04
1575431738979505145,21889,1570162032042326927,base_imu_link,-0.0360742488083,0.0603057774041,-0.306582944021,0.949246417017,0.0025,0.0,0.0,0.0,0.0025,0.0,0.0,0.0,0.0025,-0.03,0.0,0.03,0.02,0.0,0.0,0.0,0.02,0.0,0.0,0.0,0.02,-0.885987421875,-0.909736328125,9.95921875,0.04,0.0,0.0,0.0,0.04,0.0,0.0,0.0,0.04
1575431738979517093,21890,1570162032062345981,base_imu_link,-0.0353192129883,0.0600038461368,-0.307215613896,0.949089383684,0.0025,0.0,0.0,0.0,0.0025,0.0,0.0,0.0,0.0025,-0.03,0.0,0.03,0.02,0.0,0.0,0.0,0.02,0.0,0.0,0.0,0.02,-0.995921875,-1.02005382812,9.8014034375,0.04,0.0,0.0,0.0,0.04,0.0,0.0,0.0,0.04
1575431738979521216,21891,1570162032082190036,base_imu_link,-0.0351884335081,0.0604142354069,-0.307104872366,0.949104046813,0.0025,0.0,0.0,0.0,0.0025,0.0,0.0,0.0,0.0025,-0.04,-0.0,0.03,0.02,0.0,0.0,0.0,0.02,0.0,0.0,0.0,0.02,-0.967193359375,-1.01507421875,9.7247940625,0.04,0.0,0.0,0.0,0.04,0.0,0.0,0.0,0.04
1575431739029963859,21892,1570162032102157115,base_imu_link,-0.0351445979664,0.0605734878964,-0.306928035595,0.949152722571,0.0025,0.0,0.0,0.0,0.0025,0.0,0.0,0.0,0.0025,-0.04,-0.01,0.02,0.02,0.0,0.0,0.0,0.02,0.0,0.0,0.0,0.02,-0.8381065625,-1.05835851562,9.54284679687,0.04,0.0,0.0,0.0,0.04,0.0,0.0,0.0,0.04
1575431739029992457,21893,1570162032122172117,base_imu_link,-0.0355425327136,0.060374666463,-0.307591900213,0.948935641095,0.0025,0.0,0.0,0.0,0.0025,0.0,0.0,0.0,0.0025,-0.04,-0.01,0.03,0.02,0.0,0.0,0.0,0.02,0.0,0.0,0.0,0.02,-0.93386828125,-1.1108359375,9.8014034375,0.04,0.0,0.0,0.0,0.04,0.0,0.0,0.0,0.04
1575431739030000003,21894,1570162032142191886,base_imu_link,-0.0358790494845,0.0604789018034,-0.307487996399,0.948950013602,0.0025,0.0,0.0,0.0,0.0025,0.0,0.0,0.0,0.0025,-0.03,-0.01,0.03,0.02,0.0,0.0,0.0,0.02,0.0,0.0,0.0,0.02,-0.9193125,-1.04380273437,9.87303320312,0.04,0.0,0.0,0.0,0.04,0.0,0.0,0.0,0.04
1575431739079400650,21895,1570162032162600994,base_imu_link,-0.0357856864157,0.0604583148847,-0.307658891892,0.948899458873,0.0025,0.0,0.0,0.0,0.0025,0.0,0.0,0.0,0.0025,-0.03,-0.0,0.03,0.02,0.0,0.0,0.0,0.02,0.0,0.0,0.0,0.02,-0.948041015625,-1.00549804687,9.81557617187,0.04,0.0,0.0,0.0,0.04,0.0,0.0,0.0,0.04
1575431739079481069,21896,1570162032182271957,base_imu_link,-0.0355435987536,0.06064953884,-0.307569754253,0.948925251163,0.0025,0.0,0.0,0.0,0.0025,0.0,0.0,0.0,0.0025,-0.03,0.01,0.03,0.02,0.0,0.0,0.0,0.02,0.0,0.0,0.0,0.02,-0.9193125,-0.90016015625,9.5378671875,0.04,0.0,0.0,0.0,0.04,0.0,0.0,0.0,0.04
1575431739121168560,21897,1570162032202167034,base_imu_link,-0.0350239964463,0.0606355141771,-0.307093386905,0.949099734386,0.0025,0.0,0.0,0.0,0.0025,0.0,0.0,0.0,0.0025,-0.03,0.0,0.03,0.02,0.0,0.0,0.0,0.02,0.0,0.0,0.0,0.02,-0.9913253125,-1.09666320312,9.6481846875,0.04,0.0,0.0,0.0,0.04,0.0,0.0,0.0,0.04
1575431739121182131,21898,1570162032222085952,base_imu_link,-0.0353292919543,0.0611002588481,-0.307044381472,0.949074468788,0.0025,0.0,0.0,0.0,0.0025,0.0,0.0,0.0,0.0025,-0.04,-0.0,0.03,0.02,0.0,0.0,0.0,0.02,0.0,0.0,0.0,0.02,-1.02465039062,-0.967193359375,9.78225109375,0.04,0.0,0.0,0.0,0.04,0.0,0.0,0.0,0.04
1575431739203408313,21899,1570162032242155075,base_imu_link,-0.0349340681622,0.0614394122991,-0.30719791336,0.949017519082,0.0025,0.0,0.0,0.0,0.0025,0.0,0.0,0.0,0.0025,-0.04,-0.01,0.02,0.02,0.0,0.0,0.0,0.02,0.0,0.0,0.0,0.02,-0.905139765625,-0.967193359375,9.65776085937,0.04,0.0,0.0,0.0,0.04,0.0,0.0,0.0,0.04
1575431739203608092,21900,1570162032262077093,base_imu_link,-0.0347400562224,0.0611936173316,-0.307225189468,0.94903169212,0.0025,0.0,0.0,0.0,0.0025,0.0,0.0,0.0,0.0025,-0.03,-0.01,0.02,0.02,0.0,0.0,0.0,0.02,0.0,0.0,0.0,0.02,-0.885987421875,-1.17786914062,9.7247940625,0.04,0.0,0.0,0.0,0.04,0.0,0.0,0.0,0.04
1575431739203617651,21901,1570162032282110929,base_imu_link,-0.0355563996162,0.0611930560371,-0.307359642474,0.948957956138,0.0025,0.0,0.0,0.0,0.0025,0.0,0.0,0.0,0.0025,-0.03,-0.01,0.03,0.02,0.0,0.0,0.0,0.02,0.0,0.0,0.0,0.02,-0.948041015625,-0.981749140625,9.60030382812,0.04,0.0,0.0,0.0,0.04,0.0,0.0,0.0,0.04
1575431739203819952,21902,1570162032302165031,base_imu_link,-0.0352641849182,0.0612717895931,-0.307198747154,0.949015877006,0.0025,0.0,0.0,0.0,0.0025,0.0,0.0,0.0,0.0025,-0.03,0.0,0.03,0.02,0.0,0.0,0.0,0.02,0.0,0.0,0.0,0.02,-0.852279296875,-0.967193359375,9.50454210937,0.04,0.0,0.0,0.0,0.04,0.0,0.0,0.0,0.04
1575431739284934495,21903,1570162032321898937,base_imu_link,-0.0352062567157,0.0610221048325,-0.306392382761,0.949294754013,0.0025,0.0,0.0,0.0,0.0025,0.0,0.0,0.0,0.0025,-0.03,0.01,0.03,0.02,0.0,0.0,0.0,0.02,0.0,0.0,0.0,0.02,-0.948041015625,-0.97217296875,9.70066210937,0.04,0.0,0.0,0.0,0.04,0.0,0.0,0.0,0.04
1575431739284941057,21904,1570162032342080116,base_imu_link,-0.0349034347507,0.0611073073038,-0.30639714996,0.949298916956,0.0025,0.0,0.0,0.0,0.0025,0.0,0.0,0.0,0.0025,-0.03,0.0,0.03,0.02,0.0,0.0,0.0,0.02,0.0,0.0,0.0,0.02,-1.04878234375,-0.962596796875,9.8014034375,0.04,0.0,0.0,0.0,0.04,0.0,0.0,0.0,0.04
1575431739284946523,21905,1570162032362119913,base_imu_link,-0.0344541152627,0.0616120631574,-0.306539700632,0.949236682578,0.0025,0.0,0.0,0.0,0.0025,0.0,0.0,0.0,0.0025,-0.04,-0.01,0.02,0.02,0.0,0.0,0.0,0.02,0.0,0.0,0.0,0.02,-1.02005382812,-1.05337890625,9.70066210937,0.04,0.0,0.0,0.0,0.04,0.0,0.0,0.0,0.04
1575431739284966081,21906,1570162032381918907,base_imu_link,-0.0346049116933,0.061949473918,-0.306755190186,0.949139618845,0.0025,0.0,0.0,0.0,0.0025,0.0,0.0,0.0,0.0025,-0.04,-0.01,0.03,0.02,0.0,0.0,0.0,0.02,0.0,0.0,0.0,0.02,-0.928888671875,-1.09666320312,9.78225109375,0.04,0.0,0.0,0.0,0.04,0.0,0.0,0.0,0.04
1575431739288266247,21907,1570162032401895999,base_imu_link,-0.0349689908241,0.0619033772575,-0.30707614264,0.949025491853,0.0025,0.0,0.0,0.0,0.0025,0.0,0.0,0.0,0.0025,-0.03,-0.01,0.03,0.02,0.0,0.0,0.0,0.02,0.0,0.0,0.0,0.02,-0.852279296875,-0.928888671875,9.729390625,0.04,0.0,0.0,0.0,0.04,0.0,0.0,0.0,0.04
1575431739304425350,21908,1570162032421792030,base_imu_link,-0.0345627686444,0.06128125165,-0.306562067509,0.949246923611,0.0025,0.0,0.0,0.0,0.0025,0.0,0.0,0.0,0.0025,-0.03,-0.0,0.03,0.02,0.0,0.0,0.0,0.02,0.0,0.0,0.0,0.02,-0.8810078125,-1.02963,9.6481846875,0.04,0.0,0.0,0.0,0.04,0.0,0.0,0.0,0.04
1575431739405490612,21909,1570162032441884994,base_imu_link,-0.034737750303,0.0610538299825,-0.30640781053,0.949304994295,0.0025,0.0,0.0,0.0,0.0025,0.0,0.0,0.0,0.0025,-0.03,0.0,0.03,0.02,0.0,0.0,0.0,0.02,0.0,0.0,0.0,0.02,-0.847682734375,-0.981749140625,9.74394640625,0.04,0.0,0.0,0.0,0.04,0.0,0.0,0.0,0.04
1575431739405506970,21910,1570162032461858987,base_imu_link,-0.0346375996508,0.060761287593,-0.306683688951,0.949238335484,0.0025,0.0,0.0,0.0,0.0025,0.0,0.0,0.0,0.0025,-0.03,0.01,0.03,0.02,0.0,0.0,0.0,0.02,0.0,0.0,0.0,0.02,-0.87641125,-0.9576171875,9.62405273437,0.04,0.0,0.0,0.0,0.04,0.0,0.0,0.0,0.04
1575431739405513073,21911,1570162032481913089,base_imu_link,-0.0345473920138,0.0605302923432,-0.306374018453,0.949356372618,0.0025,0.0,0.0,0.0,0.0025,0.0,0.0,0.0,0.0025,-0.04,0.0,0.03,0.02,0.0,0.0,0.0,0.02,0.0,0.0,0.0,0.02,-0.967193359375,-0.948041015625,9.75352257812,0.04,0.0,0.0,0.0,0.04,0.0,0.0,0.0,0.04
1575431739405517163,21912,1570162032501934051,base_imu_link,-0.0341299975579,0.0606066577986,-0.30688113326,0.949202795164,0.0025,0.0,0.0,0.0,0.0025,0.0,0.0,0.0,0.0025,-0.04,-0.01,0.02,0.02,0.0,0.0,0.0,0.02,0.0,0.0,0.0,0.02,-0.890583984375,-1.00549804687,9.70066210937,0.04,0.0,0.0,0.0,0.04,0.0,0.0,0.0,0.04
1575431739487745092,21913,1570162032521891117,base_imu_link,-0.0342732940045,0.0603972960574,-0.307223740988,0.949100142725,0.0025,0.0,0.0,0.0,0.0025,0.0,0.0,0.0,0.0025,-0.03,-0.01,0.03,0.02,0.0,0.0,0.0,0.02,0.0,0.0,0.0,0.02,-0.905139765625,-1.03920617187,9.6481846875,0.04,0.0,0.0,0.0,0.04,0.0,0.0,0.0,0.04
1575431739487993399,21914,1570162032541945934,base_imu_link,-0.0344872230535,0.0603561876128,-0.306887416577,0.949203811418,0.0025,0.0,0.0,0.0,0.0025,0.0,0.0,0.0,0.0025,-0.03,-0.01,0.03,0.02,0.0,0.0,0.0,0.02,0.0,0.0,0.0,0.02,-0.9147159375,-0.97217296875,9.60988,0.04,0.0,0.0,0.0,0.04,0.0,0.0,0.0,0.04
1575431739488002788,21915,1570162032561774969,base_imu_link,-0.0343049132552,0.0603793423243,-0.306726751225,0.949260874591,0.0025,0.0,0.0,0.0,0.0025,0.0,0.0,0.0,0.0025,-0.03,-0.0,0.03,0.02,0.0,0.0,0.0,0.02,0.0,0.0,0.0,0.02,-0.737365234375,-1.02465039062,9.55242296875,0.04,0.0,0.0,0.0,0.04,0.0,0.0,0.0,0.04
1575431739488019295,21916,1570162032581701993,base_imu_link,-0.0347254975615,0.0596824289398,-0.306600265455,0.949330513951,0.0025,0.0,0.0,0.0,0.0025,0.0,0.0,0.0,0.0025,-0.03,0.0,0.03,0.02,0.0,0.0,0.0,0.02,0.0,0.0,0.0,0.02,-0.909736328125,-1.01507421875,9.78225109375,0.04,0.0,0.0,0.0,0.04,0.0,0.0,0.0,0.04
1575431739507536786,21917,1570162032601783037,base_imu_link,-0.0347035628049,0.0597621168931,-0.30651190268,0.949354836522,0.0025,0.0,0.0,0.0,0.0025,0.0,0.0,0.0,0.0025,-0.03,0.01,0.03,0.02,0.0,0.0,0.0,0.02,0.0,0.0,0.0,0.02,-0.962596796875,-0.995921875,9.75352257812,0.04,0.0,0.0,0.0,0.04,0.0,0.0,0.0,0.04
1575431739507548712,21918,1570162032621874094,base_imu_link,-0.0345897443347,0.0600960052967,-0.306572656588,0.949318295392,0.0025,0.0,0.0,0.0,0.0025,0.0,0.0,0.0,0.0025,-0.04,0.0,0.03,0.02,0.0,0.0,0.0,0.02,0.0,0.0,0.0,0.02,-0.93846484375,-0.948041015625,9.60988,0.04,0.0,0.0,0.0,0.04,0.0,0.0,0.0,0.04
1575431739563501795,21919,1570162032641639947,base_imu_link,-0.0343969055039,0.0601252122238,-0.306577626309,0.949321847844,0.0025,0.0,0.0,0.0,0.0025,0.0,0.0,0.0,0.0025,-0.04,-0.01,0.02,0.02,0.0,0.0,0.0,0.02,0.0,0.0,0.0,0.02,-0.890583984375,-1.00549804687,9.47581359375,0.04,0.0,0.0,0.0,0.04,0.0,0.0,0.0,0.04
1575431739563515435,21920,1570162032661700010,base_imu_link,-0.0345016583911,0.0600722626231,-0.306660742532,0.949294552719,0.0025,0.0,0.0,0.0,0.0025,0.0,0.0,0.0,0.0025,-0.03,-0.01,0.02,0.02,0.0,0.0,0.0,0.02,0.0,0.0,0.0,0.02,-0.962596796875,-0.981749140625,9.79182726562,0.04,0.0,0.0,0.0,0.04,0.0,0.0,0.0,0.04
1575431739645699842,21921,1570162032681756019,base_imu_link,-0.0342396336094,0.06020808325,-0.307322864008,0.94908128812,0.0025,0.0,0.0,0.0,0.0025,0.0,0.0,0.0,0.0025,-0.03,-0.01,0.03,0.02,0.0,0.0,0.0,0.02,0.0,0.0,0.0,0.02,-0.828530390625,-1.02963,9.533270625,0.04,0.0,0.0,0.0,0.04,0.0,0.0,0.0,0.04
1575431739645740261,21922,1570162032701637983,base_imu_link,-0.0346074304499,0.0599517277831,-0.307163558447,0.949135746064,0.0025,0.0,0.0,0.0,0.0025,0.0,0.0,0.0,0.0025,-0.03,-0.0,0.03,0.02,0.0,0.0,0.0,0.02,0.0,0.0,0.0,0.02,-0.89556359375,-1.00090148437,9.82974890625,0.04,0.0,0.0,0.0,0.04,0.0,0.0,0.0,0.04
1575431739645749916,21923,1570162032721867084,base_imu_link,-0.0344637552165,0.0598184248397,-0.307262353439,0.949117406744,0.0025,0.0,0.0,0.0,0.0025,0.0,0.0,0.0,0.0025,-0.03,0.0,0.03,0.02,0.0,0.0,0.0,0.02,0.0,0.0,0.0,0.02,-0.905139765625,-1.08708703125,9.73896679687,0.04,0.0,0.0,0.0,0.04,0.0,0.0,0.0,0.04
1575431739645789091,21924,1570162032741631984,base_imu_link,-0.0348244748863,0.0600503832424,-0.307644772023,0.948965700997,0.0025,0.0,0.0,0.0,0.0025,0.0,0.0,0.0,0.0025,-0.03,0.01,0.03,0.02,0.0,0.0,0.0,0.02,0.0,0.0,0.0,0.02,-0.962596796875,-0.943444453125,9.71521789062,0.04,0.0,0.0,0.0,0.04,0.0,0.0,0.0,0.04
1575431739664032597,21925,1570162032761646032,base_imu_link,-0.0344315698803,0.0602467024202,-0.306898209574,0.949209297681,0.0025,0.0,0.0,0.0,0.0025,0.0,0.0,0.0,0.0025,-0.04,0.0,0.03,0.02,0.0,0.0,0.0,0.02,0.0,0.0,0.0,0.02,-1.04380273437,-1.05835851562,9.73896679687,0.04,0.0,0.0,0.0,0.04,0.0,0.0,0.0,0.04
1575431739688623836,21926,1570162032781637907,base_imu_link,-0.034561993117,0.0609387642228,-0.307003878438,0.94912620566,0.0025,0.0,0.0,0.0,0.0025,0.0,0.0,0.0,0.0025,-0.04,-0.01,0.02,0.02,0.0,0.0,0.0,0.02,0.0,0.0,0.0,0.02,-0.909736328125,-1.02005382812,9.50454210937,0.04,0.0,0.0,0.0,0.04,0.0,0.0,0.0,0.04
