%time,field.header.seq,field.header.stamp,field.header.frame_id,field.orientation.x,field.orientation.y,field.orientation.z,field.orientation.w,field.orientation_covariance0,field.orientation_covariance1,field.orientation_covariance2,field.orientation_covariance3,field.orientation_covariance4,field.orientation_covariance5,field.orientation_covariance6,field.orientation_covariance7,field.orientation_covariance8,field.angular_velocity.x,field.angular_velocity.y,field.angular_velocity.z,field.angular_velocity_covariance0,field.angular_velocity_covariance1,field.angular_velocity_covariance2,field.angular_velocity_covariance3,field.angular_velocity_covariance4,field.angular_velocity_covariance5,field.angular_velocity_covariance6,field.angular_velocity_covariance7,field.angular_velocity_covariance8,field.linear_acceleration.x,field.linear_acceleration.y,field.linear_acceleration.z,field.linear_acceleration_covariance0,field.linear_acceleration_covariance1,field.linear_acceleration_covariance2,field.linear_acceleration_covariance3,field.linear_acceleration_covariance4,field.linear_acceleration_covariance5,field.linear_acceleration_covariance6,field.linear_acceleration_covariance7,field.linear_acceleration_covariance8
1.57E+18,21288,1.57E+18,base_imu_link,-0.03578308,0.060602213,-0.308558701,0.948598161,0.0025,0,0,0,0.0025,0,0,0,0.0025,-0.03,0,0,0,0,0,0,0.02,0,0,0,0.02,-0.943444453,-1.024650391,9.60988,0.04,0,0,0,0.04,0,0,0,0.04
1.57E+18,21289,1.57E+18,base_imu_link,-0.035827105,0.060785055,-0.308293744,0.948670946,0.0025,0,0,0,0.0025,0,0,0,0.0025,-0.04,0,0,0,0,0,0,0.02,0,0,0,0.02,-1.010477656,-0.953020625,9.681509766,0.04,0,0,0,0.04,0,0,0,0.04
1.57E+18,21290,1.57E+18,base_imu_link,-0.035217261,0.061164901,-0.308783135,0.948510187,0.0025,0,0,0,0.0025,0,0,0,0.0025,-0.04,0,0,0,0,0,0,0.02,0,0,0,0.02,-1.034226563,-1.010477656,9.705641719,0.04,0,0,0,0.04,0,0,0,0.04
1.57E+18,21291,1.57E+18,base_imu_link,-0.035080467,0.061578085,-0.30875491,0.94849771,0.0025,0,0,0,0.0025,0,0,0,0.0025,-0.04,0,0,0,0,0,0,0.02,0,0,0,0.02,-0.857258906,-1.005498047,9.638608516,0.04,0,0,0,0.04,0,0,0,0.04
1.57E+18,21292,1.57E+18,base_imu_link,-0.035134487,0.061137954,-0.308788471,0.948513257,0.0025,0,0,0,0.0025,0,0,0,0.0025,-0.03,0,0,0,0,0,0,0.02,0,0,0,0.02,-0.933868281,-1.058358516,9.791827266,0.04,0,0,0,0.04,0,0,0,0.04
1.57E+18,21293,1.57E+18,base_imu_link,-0.035265289,0.061137222,-0.308038081,0.948752412,0.0025,0,0,0,0.0025,0,0,0,0.0025,-0.03,0,0,0,0,0,0,0.02,0,0,0,0.02,-0.790225703,-1.087087031,9.738966797,0.04,0,0,0,0.04,0,0,0,0.04
1.57E+18,21294,1.57E+18,base_imu_link,-0.035699428,0.060642363,-0.308144412,0.948733406,0.0025,0,0,0,0.0025,0,0,0,0.0025,-0.03,0,0,0,0,0,0,0.02,0,0,0,0.02,-0.881007813,-0.957617188,9.657760859,0.04,0,0,0,0.04,0,0,0,0.04
1.57E+18,21295,1.57E+18,base_imu_link,-0.035363896,0.06047066,-0.308667895,0.948586751,0.0025,0,0,0,0.0025,0,0,0,0.0025,-0.03,0,0,0,0,0,0,0.02,0,0,0,0.02,-1.005498047,-0.986345703,9.772674922,0.04,0,0,0,0.04,0,0,0,0.04
1.57E+18,21296,1.57E+18,base_imu_link,-0.034967446,0.060876579,-0.308401779,0.948662038,0.0025,0,0,0,0.0025,0,0,0,0.0025,-0.04,0,0,0,0,0,0,0.02,0,0,0,0.02,-0.967193359,-1.015074219,9.614476563,0.04,0,0,0,0.04,0,0,0,0.04
1.57E+18,21297,1.57E+18,base_imu_link,-0.03497427,0.061081007,-0.308716362,0.948546319,0.0025,0,0,0,0.0025,0,0,0,0.0025,-0.04,0,0,0,0,0,0,0.02,0,0,0,0.02,-0.866835078,-1.096663203,9.629032344,0.04,0,0,0,0.04,0,0,0,0.04
1.57E+18,21298,1.57E+18,base_imu_link,-0.035537007,0.061004029,-0.308949624,0.948454406,0.0025,0,0,0,0.0025,0,0,0,0.0025,-0.04,0,0,0,0,0,0,0.02,0,0,0,0.02,-0.890583984,-1.101259766,9.935086797,0.04,0,0,0,0.04,0,0,0,0.04
1.57E+18,21299,1.57E+18,base_imu_link,-0.035833227,0.060714914,-0.308630533,0.948565692,0.0025,0,0,0,0.0025,0,0,0,0.0025,0,0,0,0,0,0,0,0.02,0,0,0,0.02,-0.746941406,-1.020053828,9.614476563,0.04,0,0,0,0.04,0,0,0,0.04
1.57E+18,21300,1.57E+18,base_imu_link,-0.036017444,0.059931596,-0.308355455,0.948697982,0.0025,0,0,0,0.0025,0,0,0,0.0025,-0.03,0,0,0,0,0,0,0.02,0,0,0,0.02,-0.914715938,-1.000901484,9.585748047,0.04,0,0,0,0.04,0,0,0,0.04
1.57E+18,21301,1.57E+18,base_imu_link,-0.035869547,0.060076264,-0.308515009,0.94864256,0.0025,0,0,0,0.0025,0,0,0,0.0025,-0.03,0,0,0,0,0,0,0.02,0,0,0,0.02,-0.852279297,-0.953020625,9.853880859,0.04,0,0,0,0.04,0,0,0,0.04
1.57E+18,21302,1.57E+18,base_imu_link,-0.035427483,0.059749406,-0.308557585,0.948665968,0.0025,0,0,0,0.0025,0,0,0,0.0025,-0.03,0,0,0,0,0,0,0.02,0,0,0,0.02,-0.948041016,-1.020053828,9.681509766,0.04,0,0,0,0.04,0,0,0,0.04
1.57E+18,21303,1.57E+18,base_imu_link,-0.035417818,0.06003048,-0.308701168,0.94860187,0.0025,0,0,0,0.0025,0,0,0,0.0025,-0.04,0,0,0,0,0,0,0.02,0,0,0,0.02,-0.9193125,-1.005498047,9.667337031,0.04,0,0,0,0.04,0,0,0,0.04
1.57E+18,21304,1.57E+18,base_imu_link,-0.035379986,0.060119306,-0.308861131,0.948545585,0.0025,0,0,0,0.0025,0,0,0,0.0025,-0.04,0,0,0,0,0,0,0.02,0,0,0,0.02,-0.933868281,-0.976769531,9.581151484,0.04,0,0,0,0.04,0,0,0,0.04
1.57E+18,21305,1.57E+18,base_imu_link,-0.035186002,0.060215341,-0.308446539,0.948681607,0.0025,0,0,0,0.0025,0,0,0,0.0025,-0.03,0,0,0,0,0,0,0.02,0,0,0,0.02,-0.852279297,-1.110835938,9.671933594,0.04,0,0,0,0.04,0,0,0,0.04
1.57E+18,21306,1.57E+18,base_imu_link,-0.035703977,0.060022417,-0.30852549,0.948648806,0.0025,0,0,0,0.0025,0,0,0,0.0025,-0.03,0,0,0,0,0,0,0.02,0,0,0,0.02,-0.861855469,-1.062955078,9.710238281,0.04,0,0,0,0.04,0,0,0,0.04
1.57E+18,21307,1.57E+18,base_imu_link,-0.035934654,0.059904687,-0.308360683,0.948701122,0.0025,0,0,0,0.0025,0,0,0,0.0025,-0.03,0,0,0,0,0,0,0.02,0,0,0,0.02,-0.838106563,-1.120412109,9.882609375,0.04,0,0,0,0.04,0,0,0,0.04
1.57E+18,21308,1.57E+18,base_imu_link,-0.036373819,0.059748485,-0.307942719,0.948829988,0.0025,0,0,0,0.0025,0,0,0,0.0025,-0.03,0,0,0,0,0,0,0.02,0,0,0,0.02,-0.909736328,-0.885987422,9.84890125,0.04,0,0,0,0.04,0,0,0,0.04
1.57E+18,21309,1.57E+18,base_imu_link,-0.035497728,0.059574801,-0.308320366,0.948751446,0.0025,0,0,0,0.0025,0,0,0,0.0025,-0.04,0,0,0,0,0,0,0.02,0,0,0,0.02,-0.895563594,-0.953020625,9.629032344,0.04,0,0,0,0.04,0,0,0,0.04
1.57E+18,21310,1.57E+18,base_imu_link,-0.035254536,0.059491004,-0.308253156,0.94878761,0.0025,0,0,0,0.0025,0,0,0,0.0025,-0.04,0,0,0,0,0,0,0.02,0,0,0,0.02,-0.967193359,-1.039206172,9.710238281,0.04,0,0,0,0.04,0,0,0,0.04
1.57E+18,21311,1.57E+18,base_imu_link,-0.03531095,0.059875469,-0.308220485,0.948771942,0.0025,0,0,0,0.0025,0,0,0,0.0025,-0.03,0,0,0,0,0,0,0.02,0,0,0,0.02,-0.9193125,-0.953020625,9.715217891,0.04,0,0,0,0.04,0,0,0,0.04
1.57E+18,21312,1.57E+18,base_imu_link,-0.034969332,0.059773981,-0.308406956,0.948730397,0.0025,0,0,0,0.0025,0,0,0,0.0025,-0.03,0,0,0,0,0,0,0.02,0,0,0,0.02,-0.924292109,-1.115815547,9.648184688,0.04,0,0,0,0.04,0,0,0,0.04
1.57E+18,21313,1.57E+18,base_imu_link,-0.035406214,0.060103863,-0.30844722,0.948680261,0.0025,0,0,0,0.0025,0,0,0,0.0025,-0.03,0,0,0,0,0,0,0.02,0,0,0,0.02,-0.938464844,-0.995921875,9.686489375,0.04,0,0,0,0.04,0,0,0,0.04
1.57E+18,21314,1.57E+18,base_imu_link,-0.035153421,0.060301066,-0.308523739,0.948652266,0.0025,0,0,0,0.0025,0,0,0,0.0025,-0.03,0,0,0,0,0,0,0.02,0,0,0,0.02,-0.785246094,-0.995921875,9.65278125,0.04,0,0,0,0.04,0,0,0,0.04
1.57E+18,21315,1.57E+18,base_imu_link,-0.035256699,0.059698628,-0.308650795,0.948645205,0.0025,0,0,0,0.0025,0,0,0,0.0025,-0.03,0,0,0,0,0,0,0.02,0,0,0,0.02,-0.909736328,-1.024650391,9.844304688,0.04,0,0,0,0.04,0,0,0,0.04
1.57E+18,21316,1.57E+18,base_imu_link,-0.035245017,0.059772058,-0.308396864,0.948723597,0.0025,0,0,0,0.0025,0,0,0,0.0025,-0.04,0,0,0,0,0,0,0.02,0,0,0,0.02,-0.991325313,-0.967193359,9.825152344,0.04,0,0,0,0.04,0,0,0,0.04
1.57E+18,21317,1.57E+18,base_imu_link,-0.034908352,0.060009785,-0.308059119,0.94883076,0.0025,0,0,0,0.0025,0,0,0,0.0025,-0.04,0,0,0,0,0,0,0.02,0,0,0,0.02,-0.943444453,-1.005498047,9.45666125,0.04,0,0,0,0.04,0,0,0,0.04
1.57E+18,21318,1.57E+18,base_imu_link,-0.034861949,0.060312076,-0.308782295,0.948578195,0.0025,0,0,0,0.0025,0,0,0,0.0025,-0.03,0,0,0,0,0,0,0.02,0,0,0,0.02,-0.838106563,-1.000901484,9.60988,0.04,0,0,0,0.04,0,0,0,0.04
1.57E+18,21319,1.57E+18,base_imu_link,-0.034992271,0.059969271,-0.308473416,0.94869562,0.0025,0,0,0,0.0025,0,0,0,0.0025,-0.03,0,0,0,0,0,0,0.02,0,0,0,0.02,-0.818954219,-1.053378906,9.820172734,0.04,0,0,0,0.04,0,0,0,0.04
1.57E+18,21320,1.57E+18,base_imu_link,-0.03523896,0.059500232,-0.308501538,0.948706877,0.0025,0,0,0,0.0025,0,0,0,0.0025,-0.03,0,0,0,0,0,0,0.02,0,0,0,0.02,-0.866835078,-1.024650391,9.810596563,0.04,0,0,0,0.04,0,0,0,0.04
1.57E+18,21321,1.57E+18,base_imu_link,-0.035250719,0.059426801,-0.30875545,0.948628438,0.0025,0,0,0,0.0025,0,0,0,0.0025,-0.03,0,0,0,0,0,0,0.02,0,0,0,0.02,-0.885987422,-1.005498047,9.772674922,0.04,0,0,0,0.04,0,0,0,0.04
1.57E+18,21322,1.57E+18,base_imu_link,-0.035219759,0.059369145,-0.30793268,0.948900594,0.0025,0,0,0,0.0025,0,0,0,0.0025,-0.03,0,0,0,0,0,0,0.02,0,0,0,0.02,-0.933868281,-0.976769531,9.715217891,0.04,0,0,0,0.04,0,0,0,0.04
1.57E+18,21323,1.57E+18,base_imu_link,-0.034989232,0.059486865,-0.308097589,0.948848219,0.0025,0,0,0,0.0025,0,0,0,0.0025,-0.04,0,0,0,0,0,0,0.02,0,0,0,0.02,-1.010477656,-1.043802734,9.667337031,0.04,0,0,0,0.04,0,0,0,0.04
1.57E+18,21324,1.57E+18,base_imu_link,-0.035025675,0.06015845,-0.308374254,0.948714648,0.0025,0,0,0,0.0025,0,0,0,0.0025,-0.04,0,0,0,0,0,0,0.02,0,0,0,0.02,-1.053378906,-0.986345703,9.925510625,0.04,0,0,0,0.04,0,0,0,0.04
1.57E+18,21325,1.57E+18,base_imu_link,-0.034587001,0.060588773,-0.308770578,0.948574441,0.0025,0,0,0,0.0025,0,0,0,0.0025,-0.03,0,0,0,0,0,0,0.02,0,0,0,0.02,-0.9193125,-1.02963,9.671933594,0.04,0,0,0,0.04,0,0,0,0.04
1.57E+18,21326,1.57E+18,base_imu_link,-0.0346592,0.060621768,-0.308930842,0.948517515,0.0025,0,0,0,0.0025,0,0,0,0.0025,-0.03,0,0,0,0,0,0,0.02,0,0,0,0.02,-0.943444453,-1.077510859,9.643205078,0.04,0,0,0,0.04,0,0,0,0.04
1.57E+18,21327,1.57E+18,base_imu_link,-0.034967446,0.060876579,-0.308401779,0.948662038,0.0025,0,0,0,0.0025,0,0,0,0.0025,-0.03,0,0,0,0,0,0,0.02,0,0,0,0.02,-0.885987422,-0.948041016,9.700662109,0.04,0,0,0,0.04,0,0,0,0.04
1.57E+18,21328,1.57E+18,base_imu_link,-0.034596709,0.060650296,-0.308185505,0.948760404,0.0025,0,0,0,0.0025,0,0,0,0.0025,-0.03,0,0,0,0,0,0,0.02,0,0,0,0.02,-0.809378047,-1.101259766,9.772674922,0.04,0,0,0,0.04,0,0,0,0.04
1.57E+18,21329,1.57E+18,base_imu_link,-0.035191256,0.060212271,-0.30836375,0.94870852,0.0025,0,0,0,0.0025,0,0,0,0.0025,-0.03,0,0,0,0,0,0,0.02,0,0,0,0.02,-1.005498047,-1.058358516,9.667337031,0.04,0,0,0,0.04,0,0,0,0.04
1.57E+18,21330,1.57E+18,base_imu_link,-0.03526514,0.06079509,-0.308479864,0.948630856,0.0025,0,0,0,0.0025,0,0,0,0.0025,-0.04,0,0,0,0,0,0,0.02,0,0,0,0.02,-0.938464844,-1.053378906,9.858477422,0.04,0,0,0,0.04,0,0,0,0.04
1.57E+18,21331,1.57E+18,base_imu_link,-0.035342616,0.060825094,-0.308557339,0.948600852,0.0025,0,0,0,0.0025,0,0,0,0.0025,-0.04,0,0,0,0,0,0,0.02,0,0,0,0.02,-1.020053828,-0.972172969,9.614476563,0.04,0,0,0,0.04,0,0,0,0.04
1.57E+18,21332,1.57E+18,base_imu_link,-0.034996998,0.061276284,-0.308782552,0.94851134,0.0025,0,0,0,0.0025,0,0,0,0.0025,-0.04,0,0,0,0,0,0,0.02,0,0,0,0.02,-0.976769531,-1.053378906,9.815576172,0.04,0,0,0,0.04,0,0,0,0.04
1.57E+18,21333,1.57E+18,base_imu_link,-0.035046508,0.061456274,-0.308434816,0.948611002,0.0025,0,0,0,0.0025,0,0,0,0.0025,-0.03,0,0,0,0,0,0,0.02,0,0,0,0.02,-0.794822266,-1.024650391,9.657760859,0.04,0,0,0,0.04,0,0,0,0.04
1.57E+18,21334,1.57E+18,base_imu_link,-0.035291664,0.060779697,-0.308065916,0.948765365,0.0025,0,0,0,0.0025,0,0,0,0.0025,-0.03,0,0,0,0,0,0,0.02,0,0,0,0.02,-0.785246094,-0.914715938,9.705641719,0.04,0,0,0,0.04,0,0,0,0.04
1.57E+18,21335,1.57E+18,base_imu_link,-0.034871688,0.060031098,-0.308638669,0.948642401,0.0025,0,0,0,0.0025,0,0,0,0.0025,-0.03,0,0,0,0,0,0,0.02,0,0,0,0.02,-0.905139766,-1.000901484,9.734370234,0.04,0,0,0,0.04,0,0,0,0.04
1.57E+18,21336,1.57E+18,base_imu_link,-0.034777301,0.060077716,-0.308389993,0.948723785,0.0025,0,0,0,0.0025,0,0,0,0.0025,-0.03,0,0,0,0,0,0,0.02,0,0,0,0.02,-0.838106563,-0.953020625,9.686489375,0.04,0,0,0,0.04,0,0,0,0.04
1.57E+18,21337,1.57E+18,base_imu_link,-0.034606914,0.059684451,-0.308924521,0.948580923,0.0025,0,0,0,0.0025,0,0,0,0.0025,-0.04,0,0,0,0,0,0,0.02,0,0,0,0.02,-0.976769531,-1.020053828,9.667337031,0.04,0,0,0,0.04,0,0,0,0.04
1.57E+18,21338,1.57E+18,base_imu_link,-0.034640957,0.060148586,-0.308803621,0.94858973,0.0025,0,0,0,0.0025,0,0,0,0.0025,-0.04,0,0,0,0,0,0,0.02,0,0,0,0.02,-1.024650391,-0.972172969,9.839325078,0.04,0,0,0,0.04,0,0,0,0.04
1.57E+18,21339,1.57E+18,base_imu_link,-0.034287547,0.060463043,-0.308294988,0.948748009,0.0025,0,0,0,0.0025,0,0,0,0.0025,-0.04,0,0,0,0,0,0,0.02,0,0,0,0.02,-0.794822266,-1.154120234,9.629032344,0.04,0,0,0,0.04,0,0,0,0.04
1.57E+18,21340,1.57E+18,base_imu_link,-0.035219674,0.060062325,-0.308788841,0.948578697,0.0025,0,0,0,0.0025,0,0,0,0.0025,-0.03,0,0,0,0,0,0,0.02,0,0,0,0.02,-0.881007813,-1.082107422,9.648184688,0.04,0,0,0,0.04,0,0,0,0.04
1.57E+18,21341,1.57E+18,base_imu_link,-0.035599108,0.06007504,-0.308442334,0.948676457,0.0025,0,0,0,0.0025,0,0,0,0.0025,-0.03,0,0,0,0,0,0,0.02,0,0,0,0.02,-0.818954219,-0.957617188,9.729390625,0.04,0,0,0,0.04,0,0,0,0.04
1.57E+18,21342,1.57E+18,base_imu_link,-0.035304838,0.059603653,-0.308325199,0.948755261,0.0025,0,0,0,0.0025,0,0,0,0.0025,-0.03,0,0,0,0,0,0,0.02,0,0,0,0.02,-0.809378047,-1.139564453,9.676913203,0.04,0,0,0,0.04,0,0,0,0.04
1.57E+18,21343,1.57E+18,base_imu_link,-0.036066014,0.059494538,-0.308471552,0.948685904,0.0025,0,0,0,0.0025,0,0,0,0.0025,-0.03,0,0,0,0,0,0,0.02,0,0,0,0.02,-0.838106563,-1.005498047,9.839325078,0.04,0,0,0,0.04,0,0,0,0.04
1.57E+18,21344,1.57E+18,base_imu_link,-0.035982385,0.059192719,-0.308498708,0.948699129,0.0025,0,0,0,0.0025,0,0,0,0.0025,-0.04,0,0,0,0,0,0,0.02,0,0,0,0.02,-0.933868281,-0.948041016,9.480410156,0.04,0,0,0,0.04,0,0,0,0.04
1.57E+18,21345,1.57E+18,base_imu_link,-0.035667607,0.0593506,-0.308249102,0.948782282,0.0025,0,0,0,0.0025,0,0,0,0.0025,-0.04,0,0,0,0,0,0,0.02,0,0,0,0.02,-0.9193125,-1.168292969,9.829748906,0.04,0,0,0,0.04,0,0,0,0.04
1.57E+18,21346,1.57E+18,base_imu_link,-0.036309179,0.059578462,-0.308538753,0.948649508,0.0025,0,0,0,0.0025,0,0,0,0.0025,-0.04,0,0,0,0,0,0,0.02,0,0,0,0.02,-0.909736328,-0.986345703,9.65278125,0.04,0,0,0,0.04,0,0,0,0.04
1.57E+18,21347,1.57E+18,base_imu_link,-0.036038697,0.059577196,-0.308465941,0.948683579,0.0025,0,0,0,0.0025,0,0,0,0.0025,-0.03,0,0,0,0,0,0,0.02,0,0,0,0.02,-0.785246094,-1.129988281,9.906358281,0.04,0,0,0,0.04,0,0,0,0.04
1.57E+18,21348,1.57E+18,base_imu_link,-0.036664495,0.059120392,-0.308148227,0.948791423,0.0025,0,0,0,0.0025,0,0,0,0.0025,-0.03,0,0,0,0,0,0,0.02,0,0,0,0.02,-0.881007813,-0.991325313,9.801403438,0.04,0,0,0,0.04,0,0,0,0.04
1.57E+18,21349,1.57E+18,base_imu_link,-0.036317851,0.059022334,-0.308417231,0.948723453,0.0025,0,0,0,0.0025,0,0,0,0.0025,-0.03,0,0,0,0,0,0,0.02,0,0,0,0.02,-0.87641125,-0.866835078,9.734370234,0.04,0,0,0,0.04,0,0,0,0.04
1.57E+18,21350,1.57E+18,base_imu_link,-0.035513944,0.058804865,-0.307635028,0.949021305,0.0025,0,0,0,0.0025,0,0,0,0.0025,-0.03,0,0,0,0,0,0,0.02,0,0,0,0.02,-1.043802734,-1.034226563,9.868053594,0.04,0,0,0,0.04,0,0,0,0.04
1.57E+18,21351,1.57E+18,base_imu_link,-0.035325641,0.059591326,-0.307994002,0.948862829,0.0025,0,0,0,0.0025,0,0,0,0.0025,-0.04,0,0,0,0,0,0,0.02,0,0,0,0.02,-0.957617188,-0.857258906,9.676913203,0.04,0,0,0,0.04,0,0,0,0.04
1.57E+18,21352,1.57E+18,base_imu_link,-0.034455683,0.059689144,-0.308267114,0.948799978,0.0025,0,0,0,0.0025,0,0,0,0.0025,-0.04,0,0,0,0,0,0,0.02,0,0,0,0.02,-0.813974609,-0.981749141,9.624052734,0.04,0,0,0,0.04,0,0,0,0.04
1.57E+18,21353,1.57E+18,base_imu_link,-0.03455213,0.059157168,-0.308056861,0.948898072,0.0025,0,0,0,0.0025,0,0,0,0.0025,-0.04,0,0,0,0,0,0,0.02,0,0,0,0.02,-0.905139766,-1.020053828,9.681509766,0.04,0,0,0,0.04,0,0,0,0.04
1.57E+18,21354,1.57E+18,base_imu_link,-0.034702241,0.05922002,-0.30829494,0.948811348,0.0025,0,0,0,0.0025,0,0,0,0.0025,-0.03,0,0,0,0,0,0,0.02,0,0,0,0.02,-0.818954219,-1.015074219,9.700662109,0.04,0,0,0,0.04,0,0,0,0.04
1.57E+18,21355,1.57E+18,base_imu_link,-0.034569581,0.059031612,-0.312205923,0.947548244,0.0025,0,0,0,0.0025,0,0,0,0.0025,-0.03,0,0,0,0,0,0,0.02,0,0,0,0.02,-0.833126953,-1.168292969,9.76309875,0.04,0,0,0,0.04,0,0,0,0.04
1.57E+18,21356,1.57E+18,base_imu_link,-0.035437869,0.059004401,-0.311514569,0.947745383,0.0025,0,0,0,0.0025,0,0,0,0.0025,-0.03,0,0,0,0,0,0,0.02,0,0,0,0.02,-1.005498047,-0.938464844,9.791827266,0.04,0,0,0,0.04,0,0,0,0.04
1.57E+18,21357,1.57E+18,base_imu_link,-0.034834909,0.059510866,-0.310999777,0.947905124,0.0025,0,0,0,0.0025,0,0,0,0.0025,-0.03,0,0,0,0,0,0,0.02,0,0,0,0.02,-0.928888672,-1.010477656,9.537867188,0.04,0,0,0,0.04,0,0,0,0.04
1.57E+18,21358,1.57E+18,base_imu_link,-0.034808943,0.059800968,-0.311391507,0.947759205,0.0025,0,0,0,0.0025,0,0,0,0.0025,-0.04,0,0,0,0,0,0,0.02,0,0,0,0.02,-0.881007813,-0.991325313,9.643205078,0.04,0,0,0,0.04,0,0,0,0.04
1.57E+18,21359,1.57E+18,base_imu_link,-0.034852144,0.059709269,-0.311148924,0.947843066,0.0025,0,0,0,0.0025,0,0,0,0.0025,-0.04,0,0,0,0,0,0,0.02,0,0,0,0.02,-0.967193359,-0.981749141,9.557019531,0.04,0,0,0,0.04,0,0,0,0.04
1.57E+18,21360,1.57E+18,base_imu_link,-0.034643529,0.060021524,-0.311380079,0.947755079,0.0025,0,0,0,0.0025,0,0,0,0.0025,-0.03,0,0,0,0,0,0,0.02,0,0,0,0.02,-0.818954219,-1.115815547,9.963815313,0.04,0,0,0,0.04,0,0,0,0.04
1.57E+18,21361,1.57E+18,base_imu_link,-0.035188125,0.059539904,-0.311067268,0.947868108,0.0025,0,0,0,0.0025,0,0,0,0.0025,-0.03,0,0,0,0,0,0,0.02,0,0,0,0.02,-0.842703125,-0.948041016,9.724794063,0.04,0,0,0,0.04,0,0,0,0.04
1.57E+18,21362,1.57E+18,base_imu_link,-0.034976015,0.059162194,-0.310525536,0.948077214,0.0025,0,0,0,0.0025,0,0,0,0.0025,-0.03,0,0,0,0,0,0,0.02,0,0,0,0.02,-0.866835078,-1.015074219,9.839325078,0.04,0,0,0,0.04,0,0,0,0.04
1.57E+18,21363,1.57E+18,base_imu_link,-0.034931073,0.059046392,-0.310370739,0.948136777,0.0025,0,0,0,0.0025,0,0,0,0.0025,-0.03,0,0,0,0,0,0,0.02,0,0,0,0.02,-1.005498047,-1.010477656,9.906358281,0.04,0,0,0,0.04,0,0,0,0.04
1.57E+18,21364,1.57E+18,base_imu_link,-0.034676822,0.059585487,-0.310006294,0.94823161,0.0025,0,0,0,0.0025,0,0,0,0.0025,-0.03,0,0,0,0,0,0,0.02,0,0,0,0.02,-0.981749141,-0.957617188,9.595324219,0.04,0,0,0,0.04,0,0,0,0.04
1.57E+18,21365,1.57E+18,base_imu_link,-0.034363633,0.059950476,-0.310154599,0.948171506,0.0025,0,0,0,0.0025,0,0,0,0.0025,-0.04,0,0,0,0,0,0,0.02,0,0,0,0.02,-0.986345703,-0.957617188,9.791827266,0.04,0,0,0,0.04,0,0,0,0.04
1.57E+18,21366,1.57E+18,base_imu_link,-0.033995053,0.060205666,-0.310313744,0.948116551,0.0025,0,0,0,0.0025,0,0,0,0.0025,-0.04,0,0,0,0,0,0,0.02,0,0,0,0.02,-0.87641125,-1.058358516,9.561999141,0.04,0,0,0,0.04,0,0,0,0.04
1.57E+18,21367,1.57E+18,base_imu_link,-0.034468947,0.060172839,-0.310215794,0.948133578,0.0025,0,0,0,0.0025,0,0,0,0.0025,-0.03,0,0,0,0,0,0,0.02,0,0,0,0.02,-0.852279297,-1.005498047,9.380051875,0.04,0,0,0,0.04,0,0,0,0.04
1.57E+18,21368,1.57E+18,base_imu_link,-0.034627578,0.060022608,-0.309890655,0.948243639,0.0025,0,0,0,0.0025,0,0,0,0.0025,-0.03,0,0,0,0,0,0,0.02,0,0,0,0.02,-0.914715938,-0.948041016,9.786847656,0.04,0,0,0,0.04,0,0,0,0.04
1.57E+18,21369,1.57E+18,base_imu_link,-0.034284844,0.05998808,-0.309657809,0.94833434,0.0025,0,0,0,0.0025,0,0,0,0.0025,-0.03,0,0,0,0,0,0,0.02,0,0,0,0.02,-0.957617188,-1.020053828,9.700662109,0.04,0,0,0,0.04,0,0,0,0.04
1.57E+18,21370,1.57E+18,base_imu_link,-0.034290607,0.06025999,-0.309553234,0.948351034,0.0025,0,0,0,0.0025,0,0,0,0.0025,-0.03,0,0,0,0,0,0,0.02,0,0,0,0.02,-0.905139766,-1.149140625,9.696065547,0.04,0,0,0,0.04,0,0,0,0.04
1.57E+18,21371,1.57E+18,base_imu_link,-0.035035429,0.060503094,-0.30950581,0.94832381,0.0025,0,0,0,0.0025,0,0,0,0.0025,-0.04,0,0,0,0,0,0,0.02,0,0,0,0.02,-1.020053828,-0.943444453,9.877629766,0.04,0,0,0,0.04,0,0,0,0.04
1.57E+18,21372,1.57E+18,base_imu_link,-0.034446542,0.060869805,-0.309664291,0.948270178,0.0025,0,0,0,0.0025,0,0,0,0.0025,-0.04,0,0,0,0,0,0,0.02,0,0,0,0.02,-1.02963,-1.101259766,9.557019531,0.04,0,0,0,0.04,0,0,0,0.04
1.57E+18,21373,1.57E+18,base_imu_link,-0.034888074,0.061539424,-0.309179487,0.948369003,0.0025,0,0,0,0.0025,0,0,0,0.0025,-0.04,0,0,0,0,0,0,0.02,0,0,0,0.02,-0.953020625,-1.096663203,10.09328516,0.04,0,0,0,0.04,0,0,0,0.04
1.57E+18,21374,1.57E+18,base_imu_link,-0.035020266,0.061404212,-0.309268159,0.948343983,0.0025,0,0,0,0.0025,0,0,0,0.0025,-0.03,0,0,0,0,0,0,0.02,0,0,0,0.02,-0.823550781,-0.972172969,9.676913203,0.04,0,0,0,0.04,0,0,0,0.04
1.57E+18,21375,1.57E+18,base_imu_link,-0.034904538,0.060845774,-0.309814415,0.948205934,0.0025,0,0,0,0.0025,0,0,0,0.0025,-0.03,0,0,0,0,0,0,0.02,0,0,0,0.02,-0.914715938,-0.976769531,9.715217891,0.04,0,0,0,0.04,0,0,0,0.04
1.57E+18,21376,1.57E+18,base_imu_link,-0.034704011,0.060737425,-0.309085512,0.948458087,0.0025,0,0,0,0.0025,0,0,0,0.0025,-0.03,0,0,0,0,0,0,0.02,0,0,0,0.02,-0.847682734,-0.953020625,9.710238281,0.04,0,0,0,0.04,0,0,0,0.04
1.57E+18,21377,1.57E+18,base_imu_link,-0.034433983,0.060393639,-0.309454406,0.94836959,0.0025,0,0,0,0.0025,0,0,0,0.0025,-0.03,0,0,0,0,0,0,0.02,0,0,0,0.02,-1.005498047,-1.000901484,9.638608516,0.04,0,0,0,0.04,0,0,0,0.04
1.57E+18,21378,1.57E+18,base_imu_link,-0.034362942,0.060910413,-0.309250243,0.948405713,0.0025,0,0,0,0.0025,0,0,0,0.0025,-0.04,0,0,0,0,0,0,0.02,0,0,0,0.02,-0.967193359,-0.976769531,9.715217891,0.04,0,0,0,0.04,0,0,0,0.04
1.57E+18,21379,1.57E+18,base_imu_link,-0.03415328,0.06101574,-0.309084225,0.948460634,0.0025,0,0,0,0.0025,0,0,0,0.0025,-0.04,0,0,0,0,0,0,0.02,0,0,0,0.02,-0.995921875,-1.07253125,9.619456172,0.04,0,0,0,0.04,0,0,0,0.04
1.57E+18,21380,1.57E+18,base_imu_link,-0.034462969,0.06147812,-0.30895241,0.948462521,0.0025,0,0,0,0.0025,0,0,0,0.0025,-0.04,0,0,0,0,0,0,0.02,0,0,0,0.02,-0.957617188,-1.058358516,9.624052734,0.04,0,0,0,0.04,0,0,0,0.04
1.57E+18,21381,1.57E+18,base_imu_link,-0.034678522,0.06164466,-0.309013445,0.94842397,0.0025,0,0,0,0.0025,0,0,0,0.0025,-0.03,0,0,0,0,0,0,0.02,0,0,0,0.02,-0.976769531,-1.058358516,9.896782109,0.04,0,0,0,0.04,0,0,0,0.04
1.57E+18,21382,1.57E+18,base_imu_link,-0.034701129,0.061839912,-0.309079555,0.948388889,0.0025,0,0,0,0.0025,0,0,0,0.0025,-0.03,0,0,0,0,0,0,0.02,0,0,0,0.02,-0.76609375,-0.957617188,9.76309875,0.04,0,0,0,0.04,0,0,0,0.04
1.57E+18,21383,1.57E+18,base_imu_link,-0.034643941,0.060905719,-0.30915711,0.948426155,0.0025,0,0,0,0.0025,0,0,0,0.0025,-0.03,0,0,0,0,0,0,0.02,0,0,0,0.02,-0.938464844,-0.995921875,9.710238281,0.04,0,0,0,0.04,0,0,0,0.04
1.57E+18,21384,1.57E+18,base_imu_link,-0.034517058,0.061037981,-0.308985724,0.948478128,0.0025,0,0,0,0.0025,0,0,0,0.0025,-0.03,0,0,0,0,0,0,0.02,0,0,0,0.02,-0.928888672,-1.005498047,9.825152344,0.04,0,0,0,0.04,0,0,0,0.04
1.57E+18,21385,1.57E+18,base_imu_link,-0.034455582,0.060998993,-0.308659948,0.948588937,0.0025,0,0,0,0.0025,0,0,0,0.0025,-0.04,0,0,0,0,0,0,0.02,0,0,0,0.02,-0.885987422,-1.034226563,9.76309875,0.04,0,0,0,0.04,0,0,0,0.04
1.57E+18,21386,1.57E+18,base_imu_link,-0.034588559,0.060796107,-0.309168002,0.948431659,0.0025,0,0,0,0.0025,0,0,0,0.0025,-0.04,0,0,0,0,0,0,0.02,0,0,0,0.02,-0.995921875,-1.034226563,9.868053594,0.04,0,0,0,0.04,0,0,0,0.04
1.57E+18,21387,1.57E+18,base_imu_link,-0.034595264,0.061000431,-0.309482565,0.948315695,0.0025,0,0,0,0.0025,0,0,0,0.0025,-0.04,0,0,0,0,0,0,0.02,0,0,0,0.02,-0.861855469,-1.015074219,9.801403438,0.04,0,0,0,0.04,0,0,0,0.04
1.57E+18,21388,1.57E+18,base_imu_link,-0.034665428,0.06055123,-0.30926749,0.948412081,0.0025,0,0,0,0.0025,0,0,0,0.0025,-0.03,0,0,0,0,0,0,0.02,0,0,0,0.02,-0.909736328,-1.115815547,9.868053594,0.04,0,0,0,0.04,0,0,0,0.04
1.57E+18,21389,1.57E+18,base_imu_link,-0.035080193,0.06061885,-0.309660433,0.948264283,0.0025,0,0,0,0.0025,0,0,0,0.0025,-0.03,0,0,0,0,0,0,0.02,0,0,0,0.02,-0.828530391,-0.909736328,9.648184688,0.04,0,0,0,0.04,0,0,0,0.04
1.57E+18,21390,1.57E+18,base_imu_link,-0.034673545,0.06006291,-0.308726384,0.948619108,0.0025,0,0,0,0.0025,0,0,0,0.0025,-0.03,0,0,0,0,0,0,0.02,0,0,0,0.02,-0.857258906,-1.02963,9.829748906,0.04,0,0,0,0.04,0,0,0,0.04
1.57E+18,21391,1.57E+18,base_imu_link,-0.034848787,0.059835813,-0.30857221,0.948677199,0.0025,0,0,0,0.0025,0,0,0,0.0025,-0.03,0,0,0,0,0,0,0.02,0,0,0,0.02,-1.015074219,-1.082107422,9.681509766,0.04,0,0,0,0.04,0,0,0,0.04
1.57E+18,21392,1.57E+18,base_imu_link,-0.035060874,0.060555145,-0.308672529,0.948591102,0.0025,0,0,0,0.0025,0,0,0,0.0025,-0.04,0,0,0,0,0,0,0.02,0,0,0,0.02,-1.02963,-0.953020625,9.782251094,0.04,0,0,0,0.04,0,0,0,0.04
1.57E+18,21393,1.57E+18,base_imu_link,-0.034565704,0.060943282,-0.308660205,0.948588428,0.0025,0,0,0,0.0025,0,0,0,0.0025,-0.04,0,0,0,0,0,0,0.02,0,0,0,0.02,-0.924292109,-1.067934688,9.614476563,0.04,0,0,0,0.04,0,0,0,0.04
1.57E+18,21394,1.57E+18,base_imu_link,-0.034892237,0.060986654,-0.309141154,0.948417053,0.0025,0,0,0,0.0025,0,0,0,0.0025,-0.03,0,0,0,0,0,0,0.02,0,0,0,0.02,-0.842703125,-0.972172969,9.629032344,0.04,0,0,0,0.04,0,0,0,0.04
1.57E+18,21395,1.57E+18,base_imu_link,-0.034764051,0.06056912,-0.309013901,0.948489985,0.0025,0,0,0,0.0025,0,0,0,0.0025,-0.03,0,0,0,0,0,0,0.02,0,0,0,0.02,-0.933868281,-1.024650391,9.734370234,0.04,0,0,0,0.04,0,0,0,0.04
1.57E+18,21396,1.57E+18,base_imu_link,-0.034768433,0.060633562,-0.308511654,0.948649191,0.0025,0,0,0,0.0025,0,0,0,0.0025,-0.03,0,0,0,0,0,0,0.02,0,0,0,0.02,-0.895563594,-1.058358516,9.887205938,0.04,0,0,0,0.04,0,0,0,0.04
1.57E+18,21397,1.57E+18,base_imu_link,-0.034945463,0.060613905,-0.308755002,0.948564767,0.0025,0,0,0,0.0025,0,0,0,0.0025,-0.03,0,0,0,0,0,0,0.02,0,0,0,0.02,-0.895563594,-0.953020625,9.643205078,0.04,0,0,0,0.04,0,0,0,0.04
1.57E+18,21398,1.57E+18,base_imu_link,-0.034598507,0.060515186,-0.309024468,0.948496038,0.0025,0,0,0,0.0025,0,0,0,0.0025,-0.03,0,0,0,0,0,0,0.02,0,0,0,0.02,-0.972172969,-1.005498047,9.696065547,0.04,0,0,0,0.04,0,0,0,0.04
1.57E+18,21399,1.57E+18,base_imu_link,-0.034615083,0.060781009,-0.308754142,0.948566468,0.0025,0,0,0,0.0025,0,0,0,0.0025,-0.04,0,0,0,0,0,0,0.02,0,0,0,0.02,-0.905139766,-0.933868281,9.84890125,0.04,0,0,0,0.04,0,0,0,0.04
1.57E+18,21400,1.57E+18,base_imu_link,-0.034240049,0.060489954,-0.309040038,0.948505582,0.0025,0,0,0,0.0025,0,0,0,0.0025,-0.04,0,0,0,0,0,0,0.02,0,0,0,0.02,-0.933868281,-1.07253125,9.619456172,0.04,0,0,0,0.04,0,0,0,0.04
1.57E+18,21401,1.57E+18,base_imu_link,-0.03456585,0.060600842,-0.309101674,0.948466602,0.0025,0,0,0,0.0025,0,0,0,0.0025,-0.03,0,0,0,0,0,0,0.02,0,0,0,0.02,-0.881007813,-0.981749141,9.724794063,0.04,0,0,0,0.04,0,0,0,0.04
1.57E+18,21402,1.57E+18,base_imu_link,-0.034481406,0.060366576,-0.308709463,0.948612343,0.0025,0,0,0,0.0025,0,0,0,0.0025,-0.03,0,0,0,0,0,0,0.02,0,0,0,0.02,-0.857258906,-1.000901484,9.629032344,0.04,0,0,0,0.04,0,0,0,0.04
1.57E+18,21403,1.57E+18,base_imu_link,-0.034499303,0.060222359,-0.309299968,0.948428487,0.0025,0,0,0,0.0025,0,0,0,0.0025,-0.03,0,0,0,0,0,0,0.02,0,0,0,0.02,-0.9193125,-1.020053828,9.767695313,0.04,0,0,0,0.04,0,0,0,0.04
1.57E+18,21404,1.57E+18,base_imu_link,-0.034492962,0.060292957,-0.308963343,0.948533947,0.0025,0,0,0,0.0025,0,0,0,0.0025,-0.03,0,0,0,0,0,0,0.02,0,0,0,0.02,-0.957617188,-0.976769531,9.873033203,0.04,0,0,0,0.04,0,0,0,0.04
1.57E+18,21405,1.57E+18,base_imu_link,-0.034179375,0.060383326,-0.309133615,0.948484071,0.0025,0,0,0,0.0025,0,0,0,0.0025,-0.03,0,0,0,0,0,0,0.02,0,0,0,0.02,-0.962596797,-0.981749141,9.65278125,0.04,0,0,0,0.04,0,0,0,0.04
1.57E+18,21406,1.57E+18,base_imu_link,-0.034086666,0.060637194,-0.309282559,0.948422653,0.0025,0,0,0,0.0025,0,0,0,0.0025,-0.04,0,0,0,0,0,0,0.02,0,0,0,0.02,-1.039206172,-1.005498047,9.667337031,0.04,0,0,0,0.04,0,0,0,0.04
1.57E+18,21407,1.57E+18,base_imu_link,-0.033954322,0.061115218,-0.308752683,0.948569352,0.0025,0,0,0,0.0025,0,0,0,0.0025,-0.03,0,0,0,0,0,0,0.02,0,0,0,0.02,-0.933868281,-1.091683594,9.65278125,0.04,0,0,0,0.04,0,0,0,0.04
1.57E+18,21408,1.57E+18,base_imu_link,-0.034434944,0.061285889,-0.308968961,0.948470588,0.0025,0,0,0,0.0025,0,0,0,0.0025,-0.03,0,0,0,0,0,0,0.02,0,0,0,0.02,-0.746941406,-0.991325313,9.700662109,0.04,0,0,0,0.04,0,0,0,0.04
1.57E+18,21409,1.57E+18,base_imu_link,-0.034554679,0.060331985,-0.309289161,0.948423028,0.0025,0,0,0,0.0025,0,0,0,0.0025,-0.03,0,0,0,0,0,0,0.02,0,0,0,0.02,-0.847682734,-1.043802734,9.782251094,0.04,0,0,0,0.04,0,0,0,0.04
1.57E+18,21410,1.57E+18,base_imu_link,-0.034709122,0.060117131,-0.309466087,0.948373317,0.0025,0,0,0,0.0025,0,0,0,0.0025,-0.03,0,0,0,0,0,0,0.02,0,0,0,0.02,-0.842703125,-1.053378906,9.758119141,0.04,0,0,0,0.04,0,0,0,0.04
1.57E+18,21411,1.57E+18,base_imu_link,-0.034951627,0.059926302,-0.309555039,0.948347457,0.0025,0,0,0,0.0025,0,0,0,0.0025,-0.03,0,0,0,0,0,0,0.02,0,0,0,0.02,-1.048782344,-1.000901484,9.84890125,0.04,0,0,0,0.04,0,0,0,0.04
1.57E+18,21412,1.57E+18,base_imu_link,-0.034639004,0.06056635,-0.309681283,0.948277048,0.0025,0,0,0,0.0025,0,0,0,0.0025,-0.03,0,0,0,0,0,0,0.02,0,0,0,0.02,-0.933868281,-0.847682734,9.614476563,0.04,0,0,0,0.04,0,0,0,0.04
1.57E+18,21413,1.57E+18,base_imu_link,-0.033866793,0.060405733,-0.309723248,0.94830148,0.0025,0,0,0,0.0025,0,0,0,0.0025,-0.04,0,0,0,0,0,0,0.02,0,0,0,0.02,-1.120412109,-1.115815547,9.624052734,0.04,0,0,0,0.04,0,0,0,0.04
1.57E+18,21414,1.57E+18,base_imu_link,-0.034178171,0.061625291,-0.309945012,0.94813937,0.0025,0,0,0,0.0025,0,0,0,0.0025,-0.04,0,0,0,0,0,0,0.02,0,0,0,0.02,-1.02963,-1.082107422,9.676913203,0.04,0,0,0,0.04,0,0,0,0.04
1.57E+18,21415,1.57E+18,base_imu_link,-0.03447661,0.06209394,-0.309978284,0.948087111,0.0025,0,0,0,0.0025,0,0,0,0.0025,-0.03,0,0,0,0,0,0,0.02,0,0,0,0.02,-0.857258906,-1.077510859,9.734370234,0.04,0,0,0,0.04,0,0,0,0.04
1.57E+18,21416,1.57E+18,base_imu_link,-0.03478481,0.061732012,-0.309912955,0.948120845,0.0025,0,0,0,0.0025,0,0,0,0.0025,-0.03,0,0,0,0,0,0,0.02,0,0,0,0.02,-0.857258906,-0.995921875,9.447085078,0.04,0,0,0,0.04,0,0,0,0.04
1.57E+18,21417,1.57E+18,base_imu_link,-0.034840359,0.061499411,-0.310343546,0.947993067,0.0025,0,0,0,0.0025,0,0,0,0.0025,-0.03,0,0,0,0,0,0,0.02,0,0,0,0.02,-0.857258906,-0.972172969,9.480410156,0.04,0,0,0,0.04,0,0,0,0.04
1.57E+18,21418,1.57E+18,base_imu_link,-0.034860761,0.061279782,-0.309615515,0.948244562,0.0025,0,0,0,0.0025,0,0,0,0.0025,-0.03,0,0,0,0,0,0,0.02,0,0,0,0.02,-0.890583984,-1.034226563,9.710238281,0.04,0,0,0,0.04,0,0,0,0.04
1.57E+18,21419,1.57E+18,base_imu_link,-0.03503038,0.061123238,-0.309124881,0.948408472,0.0025,0,0,0,0.0025,0,0,0,0.0025,-0.03,0,0,0,0,0,0,0.02,0,0,0,0.02,-0.967193359,-0.948041016,9.76309875,0.04,0,0,0,0.04,0,0,0,0.04
1.57E+18,21420,1.57E+18,base_imu_link,-0.034519082,0.061177728,-0.309802384,0.948202616,0.0025,0,0,0,0.0025,0,0,0,0.0025,-0.04,0,0,0,0,0,0,0.02,0,0,0,0.02,-0.861855469,-0.981749141,9.466237422,0.04,0,0,0,0.04,0,0,0,0.04
1.57E+18,21421,1.57E+18,base_imu_link,-0.034601412,0.06092989,-0.309819161,0.948210092,0.0025,0,0,0,0.0025,0,0,0,0.0025,-0.04,0,0,0,0,0,0,0.02,0,0,0,0.02,-0.9193125,-1.043802734,9.619456172,0.04,0,0,0,0.04,0,0,0,0.04
1.57E+18,21422,1.57E+18,base_imu_link,-0.034773088,0.060913493,-0.310145092,0.948098308,0.0025,0,0,0,0.0025,0,0,0,0.0025,-0.03,0,0,0,0,0,0,0.02,0,0,0,0.02,-0.833126953,-0.967193359,9.648184688,0.04,0,0,0,0.04,0,0,0,0.04
1.57E+18,21423,1.57E+18,base_imu_link,-0.034693858,0.060401109,-0.309692422,0.948281944,0.0025,0,0,0,0.0025,0,0,0,0.0025,-0.03,0,0,0,0,0,0,0.02,0,0,0,0.02,-0.775669922,-1.158716797,9.724794063,0.04,0,0,0,0.04,0,0,0,0.04
1.57E+18,21424,1.57E+18,base_imu_link,-0.035558345,0.060032762,-0.309523983,0.948328306,0.0025,0,0,0,0.0025,0,0,0,0.0025,-0.03,0,0,0,0,0,0,0.02,0,0,0,0.02,-0.967193359,-0.962596797,9.853880859,0.04,0,0,0,0.04,0,0,0,0.04
1.57E+18,21425,1.57E+18,base_imu_link,-0.035117667,0.06025522,-0.309522585,0.948331075,0.0025,0,0,0,0.0025,0,0,0,0.0025,-0.03,0,0,0,0,0,0,0.02,0,0,0,0.02,-0.914715938,-0.909736328,9.782251094,0.04,0,0,0,0.04,0,0,0,0.04
1.57E+18,21426,1.57E+18,base_imu_link,-0.034521444,0.060142736,-0.309388274,0.948403932,0.0025,0,0,0,0.0025,0,0,0,0.0025,-0.04,0,0,0,0,0,0,0.02,0,0,0,0.02,-1.005498047,-1.106239375,9.829748906,0.04,0,0,0,0.04,0,0,0,0.04
1.57E+18,21427,1.57E+18,base_imu_link,-0.034887261,0.060647423,-0.309665416,0.948267947,0.0025,0,0,0,0.0025,0,0,0,0.0025,-0.04,0,0,0,0,0,0,0.02,0,0,0,0.02,-0.967193359,-0.847682734,9.710238281,0.04,0,0,0,0.04,0,0,0,0.04
1.57E+18,21428,1.57E+18,base_imu_link,-0.033956286,0.060636891,-0.310032646,0.948182417,0.0025,0,0,0,0.0025,0,0,0,0.0025,-0.03,0,0,0,0,0,0,0.02,0,0,0,0.02,-0.818954219,-1.039206172,9.710238281,0.04,0,0,0,0.04,0,0,0,0.04
1.57E+18,21429,1.57E+18,base_imu_link,-0.034329694,0.060103722,-0.309812558,0.948274851,0.0025,0,0,0,0.0025,0,0,0,0.0025,-0.03,-0.01,0.03,0.02,0,0,0,0.02,0,0,0,0.02,-0.933868281,-1.082107422,9.710238281,0.04,0,0,0,0.04,0,0,0,0.04
1.57E+18,21430,1.57E+18,base_imu_link,-0.0347476,0.060303331,-0.309284191,0.948419423,0.0025,0,0,0,0.0025,0,0,0,0.0025,-0.03,0,0.03,0.02,0,0,0,0.02,0,0,0,0.02,-0.87641125,-0.914715938,9.767695313,0.04,0,0,0,0.04,0,0,0,0.04
1.57E+18,21431,1.57E+18,base_imu_link,-0.034185148,0.060037719,-0.309492012,0.948388919,0.0025,0,0,0,0.0025,0,0,0,0.0025,-0.03,0.01,0.03,0.02,0,0,0,0.02,0,0,0,0.02,-0.847682734,-0.976769531,9.671933594,0.04,0,0,0,0.04,0,0,0,0.04
1.57E+18,21432,1.57E+18,base_imu_link,-0.034174161,0.059768775,-0.309679274,0.948345173,0.0025,0,0,0,0.0025,0,0,0,0.0025,-0.03,0,0.03,0.02,0,0,0,0.02,0,0,0,0.02,-1.082107422,-0.924292109,9.84890125,0.04,0,0,0,0.04,0,0,0,0.04
1.57E+18,21433,1.57E+18,base_imu_link,-0.033512576,0.060445328,-0.309236774,0.948470288,0.0025,0,0,0,0.0025,0,0,0,0.0025,-0.04,0,0.03,0.02,0,0,0,0.02,0,0,0,0.02,-0.909736328,-1.000901484,9.686489375,0.04,0,0,0,0.04,0,0,0,0.04
1.57E+18,21434,1.57E+18,base_imu_link,-0.033601645,0.060401407,-0.309568048,0.948361863,0.0025,0,0,0,0.0025,0,0,0,0.0025,-0.04,-0.01,0.03,0.02,0,0,0,0.02,0,0,0,0.02,-0.857258906,-1.110835938,9.585748047,0.04,0,0,0,0.04,0,0,0,0.04
1.57E+18,21435,1.57E+18,base_imu_link,-0.034394408,0.060275001,-0.309216919,0.948456033,0.0025,0,0,0,0.0025,0,0,0,0.0025,-0.03,-0.01,0.02,0.02,0,0,0,0.02,0,0,0,0.02,-0.866835078,-1.062955078,9.810596563,0.04,0,0,0,0.04,0,0,0,0.04
1.57E+18,21436,1.57E+18,base_imu_link,-0.034741765,0.060031469,-0.309388876,0.948402739,0.0025,0,0,0,0.0025,0,0,0,0.0025,-0.03,-0.01,0.03,0.02,0,0,0,0.02,0,0,0,0.02,-0.838106563,-1.082107422,10.00212,0.04,0,0,0,0.04,0,0,0,0.04
1.57E+18,21437,1.57E+18,base_imu_link,-0.034945892,0.05965445,-0.309659673,0.948330648,0.0025,0,0,0,0.0025,0,0,0,0.0025,-0.03,0,0.03,0.02,0,0,0,0.02,0,0,0,0.02,-0.885987422,-1.110835938,9.767695313,0.04,0,0,0,0.04,0,0,0,0.04
1.57E+18,21438,1.57E+18,base_imu_link,-0.035375328,0.059780299,-0.309385335,0.948396339,0.0025,0,0,0,0.0025,0,0,0,0.0025,-0.03,0.01,0.03,0.02,0,0,0,0.02,0,0,0,0.02,-0.953020625,-0.852279297,9.76309875,0.04,0,0,0,0.04,0,0,0,0.04
1.57E+18,21439,1.57E+18,base_imu_link,-0.034422436,0.059849846,-0.309663616,0.948336194,0.0025,0,0,0,0.0025,0,0,0,0.0025,-0.04,0,0.03,0.02,0,0,0,0.02,0,0,0,0.02,-1.024650391,-1.034226563,9.60988,0.04,0,0,0,0.04,0,0,0,0.04
1.57E+18,21440,1.57E+18,base_imu_link,-0.034473498,0.0605123,-0.309691849,0.948283079,0.0025,0,0,0,0.0025,0,0,0,0.0025,-0.04,0,0.03,0.02,0,0,0,0.02,0,0,0,0.02,-1.067934688,-0.953020625,9.772674922,0.04,0,0,0,0.04,0,0,0,0.04
1.57E+18,21441,1.57E+18,base_imu_link,-0.034016483,0.061086252,-0.309497811,0.948326133,0.0025,0,0,0,0.0025,0,0,0,0.0025,-0.04,-0.01,0.02,0.02,0,0,0,0.02,0,0,0,0.02,-0.895563594,-0.986345703,9.786847656,0.04,0,0,0,0.04,0,0,0,0.04
1.57E+18,21442,1.57E+18,base_imu_link,-0.033927902,0.060787318,-0.309607833,0.948312601,0.0025,0,0,0,0.0025,0,0,0,0.0025,-0.03,-0.01,0.02,0.02,0,0,0,0.02,0,0,0,0.02,-0.895563594,-1.134967891,9.700662109,0.04,0,0,0,0.04,0,0,0,0.04
1.57E+18,21443,1.57E+18,base_imu_link,-0.034623545,0.060850299,-0.309907494,0.948185528,0.0025,0,0,0,0.0025,0,0,0,0.0025,-0.03,-0.01,0.03,0.02,0,0,0,0.02,0,0,0,0.02,-0.842703125,-0.914715938,9.537867188,0.04,0,0,0,0.04,0,0,0,0.04
1.57E+18,21444,1.57E+18,base_imu_link,-0.034302715,0.060461241,-0.309785159,0.948262051,0.0025,0,0,0,0.0025,0,0,0,0.0025,-0.03,0,0.03,0.02,0,0,0,0.02,0,0,0,0.02,-0.852279297,-0.928888672,9.715217891,0.04,0,0,0,0.04,0,0,0,0.04
1.57E+18,21445,1.57E+18,base_imu_link,-0.033981735,0.060072267,-0.309662509,0.948338386,0.0025,0,0,0,0.0025,0,0,0,0.0025,-0.03,0.01,0.03,0.02,0,0,0,0.02,0,0,0,0.02,-0.842703125,-0.866835078,9.782251094,0.04,0,0,0,0.04,0,0,0,0.04
1.57E+18,21446,1.57E+18,base_imu_link,-0.033429322,0.059525535,-0.30972612,0.948371721,0.0025,0,0,0,0.0025,0,0,0,0.0025,-0.03,0,0.03,0.02,0,0,0,0.02,0,0,0,0.02,-0.991325313,-0.847682734,9.629032344,0.04,0,0,0,0.04,0,0,0,0.04
1.57E+18,21447,1.57E+18,base_imu_link,-0.03270639,0.059820726,-0.309399026,0.948485116,0.0025,0,0,0,0.0025,0,0,0,0.0025,-0.04,0,0.03,0.02,0,0,0,0.02,0,0,0,0.02,-1.043802734,-1.158716797,9.686489375,0.04,0,0,0,0.04,0,0,0,0.04
1.57E+18,21448,1.57E+18,base_imu_link,-0.033481401,0.060737768,-0.309711585,0.948297766,0.0025,0,0,0,0.0025,0,0,0,0.0025,-0.04,-0.01,0.02,0.02,0,0,0,0.02,0,0,0,0.02,-0.995921875,-0.995921875,9.873033203,0.04,0,0,0,0.04,0,0,0,0.04
1.57E+18,21449,1.57E+18,base_imu_link,-0.03335973,0.060867256,-0.309457622,0.948376658,0.0025,0,0,0,0.0025,0,0,0,0.0025,-0.03,-0.01,0.03,0.02,0,0,0,0.02,0,0,0,0.02,-0.895563594,-0.890583984,9.537867188,0.04,0,0,0,0.04,0,0,0,0.04
1.57E+18,21450,1.57E+18,base_imu_link,-0.032983908,0.060643835,-0.309324079,0.94844768,0.0025,0,0,0,0.0025,0,0,0,0.0025,-0.03,-0.01,0.03,0.02,0,0,0,0.02,0,0,0,0.02,-0.823550781,-0.967193359,9.772674922,0.04,0,0,0,0.04,0,0,0,0.04
1.57E+18,21451,1.57E+18,base_imu_link,-0.032972209,0.060099762,-0.309532807,0.948414621,0.0025,0,0,0,0.0025,0,0,0,0.0025,-0.03,0,0.03,0.02,0,0,0,0.02,0,0,0,0.02,-0.924292109,-0.991325313,9.95921875,0.04,0,0,0,0.04,0,0,0,0.04
1.57E+18,21452,1.57E+18,base_imu_link,-0.032936615,0.0600469,-0.30879307,0.948660313,0.0025,0,0,0,0.0025,0,0,0,0.0025,-0.03,0.01,0.03,0.02,0,0,0,0.02,0,0,0,0.02,-0.861855469,-0.976769531,9.528291016,0.04,0,0,0,0.04,0,0,0,0.04
1.57E+18,21453,1.57E+18,base_imu_link,-0.033135936,0.059947048,-0.309124575,0.948551716,0.0025,0,0,0,0.0025,0,0,0,0.0025,-0.04,0,0.03,0.02,0,0,0,0.02,0,0,0,0.02,-0.991325313,-1.034226563,9.753522578,0.04,0,0,0,0.04,0,0,0,0.04
1.57E+18,21454,1.57E+18,base_imu_link,-0.033258998,0.060367271,-0.309335358,0.948452038,0.0025,0,0,0,0.0025,0,0,0,0.0025,-0.04,0,0.03,0.02,0,0,0,0.02,0,0,0,0.02,-0.943444453,-1.015074219,9.844304688,0.04,0,0,0,0.04,0,0,0,0.04
1.57E+18,21455,1.57E+18,base_imu_link,-0.033336495,0.060397174,-0.309412855,0.948422134,0.0025,0,0,0,0.0025,0,0,0,0.0025,-0.03,-0.01,0.02,0.02,0,0,0,0.02,0,0,0,0.02,-0.828530391,-1.149140625,9.710238281,0.04,0,0,0,0.04,0,0,0,0.04
1.57E+18,21456,1.57E+18,base_imu_link,-0.034323269,0.060174367,-0.309476002,0.948380495,0.0025,0,0,0,0.0025,0,0,0,0.0025,-0.03,-0.01,0.03,0.02,0,0,0,0.02,0,0,0,0.02,-0.928888672,-1.02963,9.796423828,0.04,0,0,0,0.04,0,0,0,0.04
1.57E+18,21457,1.57E+18,base_imu_link,-0.034323269,0.060174367,-0.309476002,0.948380495,0.0025,0,0,0,0.0025,0,0,0,0.0025,-0.03,-0.01,0.03,0.02,0,0,0,0.02,0,0,0,0.02,-0.771073359,-1.005498047,9.729390625,0.04,0,0,0,0.04,0,0,0,0.04
1.57E+18,21458,1.57E+18,base_imu_link,-0.034563261,0.05950124,-0.309189077,0.948507827,0.0025,0,0,0,0.0025,0,0,0,0.0025,-0.03,0,0.03,0.02,0,0,0,0.02,0,0,0,0.02,-0.914715938,-1.058358516,9.738966797,0.04,0,0,0,0.04,0,0,0,0.04
1.57E+18,21459,1.57E+18,base_imu_link,-0.034762045,0.059744436,-0.309079652,0.948520939,0.0025,0,0,0,0.0025,0,0,0,0.0025,-0.03,0.01,0.03,0.02,0,0,0,0.02,0,0,0,0.02,-0.967193359,-0.881007813,9.533270625,0.04,0,0,0,0.04,0,0,0,0.04
1.57E+18,21460,1.57E+18,base_imu_link,-0.034133802,0.059992847,-0.309000631,0.948553821,0.0025,0,0,0,0.0025,0,0,0,0.0025,-0.04,0,0.03,0.02,0,0,0,0.02,0,0,0,0.02,-0.905139766,-0.976769531,9.624052734,0.04,0,0,0,0.04,0,0,0,0.04
1.57E+18,21461,1.57E+18,base_imu_link,-0.034144272,0.059986888,-0.308835072,0.948607738,0.0025,0,0,0,0.0025,0,0,0,0.0025,-0.04,-0.01,0.02,0.02,0,0,0,0.02,0,0,0,0.02,-0.976769531,-1.043802734,9.566595703,0.04,0,0,0,0.04,0,0,0,0.04
1.57E+18,21462,1.57E+18,base_imu_link,-0.034251602,0.060416281,-0.309293881,0.948427117,0.0025,0,0,0,0.0025,0,0,0,0.0025,-0.03,-0.01,0.03,0.02,0,0,0,0.02,0,0,0,0.02,-0.871431641,-1.087087031,9.619456172,0.04,0,0,0,0.04,0,0,0,0.04
1.57E+18,21463,1.57E+18,base_imu_link,-0.034861949,0.060312076,-0.308782295,0.948578195,0.0025,0,0,0,0.0025,0,0,0,0.0025,-0.03,-0.01,0.02,0.02,0,0,0,0.02,0,0,0,0.02,-0.881007813,-1.134967891,9.767695313,0.04,0,0,0,0.04,0,0,0,0.04
1.57E+18,21464,1.57E+18,base_imu_link,-0.035439626,0.060292998,-0.308347976,0.948699274,0.0025,0,0,0,0.0025,0,0,0,0.0025,-0.03,0,0.03,0.02,0,0,0,0.02,0,0,0,0.02,-0.857258906,-0.986345703,9.671933594,0.04,0,0,0,0.04,0,0,0,0.04
1.57E+18,21465,1.57E+18,base_imu_link,-0.035302453,0.060089272,-0.308783598,0.948575619,0.0025,0,0,0,0.0025,0,0,0,0.0025,-0.03,0,0.03,0.02,0,0,0,0.02,0,0,0,0.02,-1.048782344,-0.890583984,9.710238281,0.04,0,0,0,0.04,0,0,0,0.04
1.57E+18,21466,1.57E+18,base_imu_link,-0.034404675,0.060611525,-0.308610034,0.948631861,0.0025,0,0,0,0.0025,0,0,0,0.0025,-0.03,0,0.03,0.02,0,0,0,0.02,0,0,0,0.02,-0.953020625,-0.991325313,9.925510625,0.04,0,0,0,0.04,0,0,0,0.04
1.57E+18,21467,1.57E+18,base_imu_link,-0.03420119,0.060646284,-0.308780633,0.948581482,0.0025,0,0,0,0.0025,0,0,0,0.0025,-0.04,0,0.03,0.02,0,0,0,0.02,0,0,0,0.02,-0.943444453,-0.995921875,9.705641719,0.04,0,0,0,0.04,0,0,0,0.04
1.57E+18,21468,1.57E+18,base_imu_link,-0.034168543,0.060731913,-0.308857869,0.948552034,0.0025,0,0,0,0.0025,0,0,0,0.0025,-0.04,0,0.02,0.02,0,0,0,0.02,0,0,0,0.02,-0.924292109,-1.101259766,9.643205078,0.04,0,0,0,0.04,0,0,0,0.04
1.57E+18,21469,1.57E+18,base_imu_link,-0.034681139,0.060884545,-0.308577692,0.948614832,0.0025,0,0,0,0.0025,0,0,0,0.0025,-0.03,-0.01,0.03,0.02,0,0,0,0.02,0,0,0,0.02,-0.890583984,-1.010477656,9.844304688,0.04,0,0,0,0.04,0,0,0,0.04
1.57E+18,21470,1.57E+18,base_imu_link,-0.034680359,0.060609666,-0.308599728,0.948625294,0.0025,0,0,0,0.0025,0,0,0,0.0025,-0.03,-0.01,0.03,0.02,0,0,0,0.02,0,0,0,0.02,-0.866835078,-1.106239375,9.648184688,0.04,0,0,0,0.04,0,0,0,0.04
1.57E+18,21471,1.57E+18,base_imu_link,-0.035237011,0.060602868,-0.308496392,0.948638826,0.0025,0,0,0,0.0025,0,0,0,0.0025,-0.03,0,0.03,0.02,0,0,0,0.02,0,0,0,0.02,-0.823550781,-1.120412109,9.571575313,0.04,0,0,0,0.04,0,0,0,0.04
1.57E+18,21472,1.57E+18,base_imu_link,-0.035843024,0.060433791,-0.30848721,0.948629894,0.0025,0,0,0,0.0025,0,0,0,0.0025,-0.03,0,0.03,0.02,0,0,0,0.02,0,0,0,0.02,-0.948041016,-0.866835078,9.681509766,0.04,0,0,0,0.04,0,0,0,0.04
1.57E+18,21473,1.57E+18,base_imu_link,-0.034927926,0.060415574,-0.308605891,0.948626587,0.0025,0,0,0,0.0025,0,0,0,0.0025,-0.03,0,0.03,0.02,0,0,0,0.02,0,0,0,0.02,-1.115815547,-1.039206172,9.686489375,0.04,0,0,0,0.04,0,0,0,0.04
1.57E+18,21474,1.57E+18,base_imu_link,-0.034760105,0.061464239,-0.308610836,0.948563775,0.0025,0,0,0,0.0025,0,0,0,0.0025,-0.04,0,0.03,0.02,0,0,0,0.02,0,0,0,0.02,-1.039206172,-0.972172969,9.868053594,0.04,0,0,0,0.04,0,0,0,0.04
1.57E+18,21475,1.57E+18,base_imu_link,-0.034407402,0.061778649,-0.308102181,0.948721548,0.0025,0,0,0,0.0025,0,0,0,0.0025,-0.04,-0.01,0.03,0.02,0,0,0,0.02,0,0,0,0.02,-0.905139766,-1.082107422,9.614476563,0.04,0,0,0,0.04,0,0,0,0.04
1.57E+18,21476,1.57E+18,base_imu_link,-0.034804334,0.061647344,-0.308345867,0.948636437,0.0025,0,0,0,0.0025,0,0,0,0.0025,-0.03,-0.01,0.03,0.02,0,0,0,0.02,0,0,0,0.02,-0.842703125,-0.991325313,9.767695313,0.04,0,0,0,0.04,0,0,0,0.04
1.57E+18,21477,1.57E+18,base_imu_link,-0.034781368,0.061109768,-0.308721414,0.948549915,0.0025,0,0,0,0.0025,0,0,0,0.0025,-0.03,-0.01,0.03,0.02,0,0,0,0.02,0,0,0,0.02,-0.87641125,-1.015074219,9.76309875,0.04,0,0,0,0.04,0,0,0,0.04
1.57E+18,21478,1.57E+18,base_imu_link,-0.034801872,0.060822751,-0.3084124,0.948668127,0.0025,0,0,0,0.0025,0,0,0,0.0025,-0.03,0,0.03,0.02,0,0,0,0.02,0,0,0,0.02,-0.905139766,-0.9193125,9.801403438,0.04,0,0,0,0.04,0,0,0,0.04
1.57E+18,21479,1.57E+18,base_imu_link,-0.034289264,0.060670238,-0.308692559,0.948605436,0.0025,0,0,0,0.0025,0,0,0,0.0025,-0.03,0.01,0.03,0.02,0,0,0,0.02,0,0,0,0.02,-0.881007813,-1.020053828,9.729390625,0.04,0,0,0,0.04,0,0,0,0.04
1.57E+18,21480,1.57E+18,base_imu_link,-0.03443729,0.060525867,-0.3085328,0.948661269,0.0025,0,0,0,0.0025,0,0,0,0.0025,-0.04,0,0.03,0.02,0,0,0,0.02,0,0,0,0.02,-0.842703125,-0.9193125,9.782251094,0.04,0,0,0,0.04,0,0,0,0.04
1.57E+18,21481,1.57E+18,base_imu_link,-0.034159975,0.059977947,-0.308586717,0.948688558,0.0025,0,0,0,0.0025,0,0,0,0.0025,-0.04,0,0.03,0.02,0,0,0,0.02,0,0,0,0.02,-0.871431641,-1.129988281,9.705641719,0.04,0,0,0,0.04,0,0,0,0.04
1.57E+18,21482,1.57E+18,base_imu_link,-0.034893788,0.059951489,-0.308727006,0.948617878,0.0025,0,0,0,0.0025,0,0,0,0.0025,-0.04,-0.01,0.02,0.02,0,0,0,0.02,0,0,0,0.02,-0.986345703,-1.000901484,9.643205078,0.04,0,0,0,0.04,0,0,0,0.04
1.57E+18,21483,1.57E+18,base_imu_link,-0.034690104,0.060328725,-0.308456125,0.948689549,0.0025,0,0,0,0.0025,0,0,0,0.0025,-0.03,-0.01,0.03,0.02,0,0,0,0.02,0,0,0,0.02,-0.847682734,-1.106239375,9.786847656,0.04,0,0,0,0.04,0,0,0,0.04
1.57E+18,21484,1.57E+18,base_imu_link,-0.035209191,0.060068471,-0.308954394,0.948524788,0.0025,0,0,0,0.0025,0,0,0,0.0025,-0.03,-0.01,0.03,0.02,0,0,0,0.02,0,0,0,0.02,-0.833126953,-1.144544063,9.533270625,0.04,0,0,0,0.04,0,0,0,0.04
1.57E+18,21485,1.57E+18,base_imu_link,-0.035963943,0.060029952,-0.308763742,0.94856099,0.0025,0,0,0,0.0025,0,0,0,0.0025,-0.03,0,0.03,0.02,0,0,0,0.02,0,0,0,0.02,-0.957617188,-1.067934688,9.930490234,0.04,0,0,0,0.04,0,0,0,0.04
1.57E+18,21486,1.57E+18,base_imu_link,-0.035918714,0.060255955,-0.308167338,0.948742303,0.0025,0,0,0,0.0025,0,0,0,0.0025,-0.03,0.01,0.03,0.02,0,0,0,0.02,0,0,0,0.02,-0.986345703,-0.87641125,9.734370234,0.04,0,0,0,0.04,0,0,0,0.04
1.57E+18,21487,1.57E+18,base_imu_link,-0.035015061,0.06050683,-0.308098292,0.948782542,0.0025,0,0,0,0.0025,0,0,0,0.0025,-0.03,0,0.03,0.02,0,0,0,0.02,0,0,0,0.02,-0.962596797,-1.053378906,9.782251094,0.04,0,0,0,0.04,0,0,0,0.04
1.57E+18,21488,1.57E+18,base_imu_link,-0.035094271,0.060744312,-0.308573253,0.948610072,0.0025,0,0,0,0.0025,0,0,0,0.0025,-0.04,-0.01,0.02,0.02,0,0,0,0.02,0,0,0,0.02,-0.938464844,-0.938464844,9.537867188,0.04,0,0,0,0.04,0,0,0,0.04
1.57E+18,21489,1.57E+18,base_imu_link,-0.034813289,0.060749214,-0.308666339,0.948589826,0.0025,0,0,0,0.0025,0,0,0,0.0025,-0.04,-0.01,0.02,0.02,0,0,0,0.02,0,0,0,0.02,-0.948041016,-0.991325313,9.671933594,0.04,0,0,0,0.04,0,0,0,0.04
1.57E+18,21490,1.57E+18,base_imu_link,-0.034620387,0.060777988,-0.308671362,0.948593409,0.0025,0,0,0,0.0025,0,0,0,0.0025,-0.03,-0.01,0.03,0.02,0,0,0,0.02,0,0,0,0.02,-0.928888672,-0.986345703,9.710238281,0.04,0,0,0,0.04,0,0,0,0.04
1.57E+18,21491,1.57E+18,base_imu_link,-0.034443403,0.060797747,-0.30842805,0.948677724,0.0025,0,0,0,0.0025,0,0,0,0.0025,-0.03,0,0.03,0.02,0,0,0,0.02,0,0,0,0.02,-0.828530391,-0.890583984,9.600303828,0.04,0,0,0,0.04,0,0,0,0.04
1.57E+18,21492,1.57E+18,base_imu_link,-0.034037235,0.060175248,-0.307913075,0.948899333,0.0025,0,0,0,0.0025,0,0,0,0.0025,-0.03,0,0.03,0.02,0,0,0,0.02,0,0,0,0.02,-0.809378047,-1.082107422,9.753522578,0.04,0,0,0,0.04,0,0,0,0.04
1.57E+18,21493,1.57E+18,base_imu_link,-0.034577146,0.059902248,-0.308080047,0.948842888,0.0025,0,0,0,0.0025,0,0,0,0.0025,-0.03,0.01,0.03,0.02,0,0,0,0.02,0,0,0,0.02,-0.991325313,-0.924292109,9.657760859,0.04,0,0,0,0.04,0,0,0,0.04
1.57E+18,21494,1.57E+18,base_imu_link,-0.034092775,0.060284795,-0.307902314,0.948893878,0.0025,0,0,0,0.0025,0,0,0,0.0025,-0.04,0,0.03,0.02,0,0,0,0.02,0,0,0,0.02,-0.986345703,-0.981749141,9.810596563,0.04,0,0,0,0.04,0,0,0,0.04
1.57E+18,21495,1.57E+18,base_imu_link,-0.033917607,0.060511875,-0.308056665,0.948835602,0.0025,0,0,0,0.0025,0,0,0,0.0025,-0.04,-0.01,0.02,0.02,0,0,0,0.02,0,0,0,0.02,-0.943444453,-0.967193359,9.801403438,0.04,0,0,0,0.04,0,0,0,0.04
1.57E+18,21496,1.57E+18,base_imu_link,-0.033736174,0.060466942,-0.308315617,0.948760823,0.0025,0,0,0,0.0025,0,0,0,0.0025,-0.03,-0.01,0.02,0.02,0,0,0,0.02,0,0,0,0.02,-1.015074219,-1.139564453,9.595324219,0.04,0,0,0,0.04,0,0,0,0.04
1.57E+18,21497,1.57E+18,base_imu_link,-0.034387454,0.061098379,-0.307577791,0.948936454,0.0025,0,0,0,0.0025,0,0,0,0.0025,-0.03,-0.01,0.02,0.02,0,0,0,0.02,0,0,0,0.02,-0.852279297,-1.120412109,9.753522578,0.04,0,0,0,0.04,0,0,0,0.04
1.57E+18,21498,1.57E+18,base_imu_link,-0.035020557,0.060846041,-0.307573798,0.948930808,0.0025,0,0,0,0.0025,0,0,0,0.0025,-0.03,0,0.03,0.02,0,0,0,0.02,0,0,0,0.02,-0.828530391,-0.976769531,9.470833984,0.04,0,0,0,0.04,0,0,0,0.04
1.57E+18,21499,1.57E+18,base_imu_link,-0.03493668,0.060544323,-0.307601166,0.948944327,0.0025,0,0,0,0.0025,0,0,0,0.0025,-0.03,0,0.03,0.02,0,0,0,0.02,0,0,0,0.02,-0.775669922,-1.039206172,9.705641719,0.04,0,0,0,0.04,0,0,0,0.04
1.57E+18,21500,1.57E+18,base_imu_link,-0.035293028,0.060019251,-0.307629703,0.948955245,0.0025,0,0,0,0.0025,0,0,0,0.0025,-0.03,0.01,0.03,0.02,0,0,0,0.02,0,0,0,0.02,-0.967193359,-1.163696406,9.710238281,0.04,0,0,0,0.04,0,0,0,0.04
1.57E+18,21501,1.57E+18,base_imu_link,-0.035939907,0.060585276,-0.307394254,0.948971296,0.0025,0,0,0,0.0025,0,0,0,0.0025,-0.03,0,0.03,0.02,0,0,0,0.02,0,0,0,0.02,-1.02963,-0.976769531,9.671933594,0.04,0,0,0,0.04,0,0,0,0.04
1.57E+18,21502,1.57E+18,base_imu_link,-0.035517411,0.061007078,-0.307541897,0.948912341,0.0025,0,0,0,0.0025,0,0,0,0.0025,-0.04,-0.01,0.03,0.02,0,0,0,0.02,0,0,0,0.02,-0.895563594,-0.885987422,9.60988,0.04,0,0,0,0.04,0,0,0,0.04
1.57E+18,21503,1.57E+18,base_imu_link,-0.034914723,0.060623955,-0.307512772,0.9489687,0.0025,0,0,0,0.0025,0,0,0,0.0025,-0.03,-0.01,0.03,0.02,0,0,0,0.02,0,0,0,0.02,-0.957617188,-1.187445313,9.791827266,0.04,0,0,0,0.04,0,0,0,0.04
1.57E+18,21504,1.57E+18,base_imu_link,-0.035704956,0.060981196,-0.30761971,0.948881744,0.0025,0,0,0,0.0025,0,0,0,0.0025,-0.03,-0.01,0.03,0.02,0,0,0,0.02,0,0,0,0.02,-0.871431641,-1.115815547,9.791827266,0.04,0,0,0,0.04,0,0,0,0.04
1.57E+18,21505,1.57E+18,base_imu_link,-0.036058787,0.060942122,-0.308106561,0.948712901,0.0025,0,0,0,0.0025,0,0,0,0.0025,-0.03,0,0.03,0.02,0,0,0,0.02,0,0,0,0.02,-0.866835078,-1.07253125,9.696065547,0.04,0,0,0,0.04,0,0,0,0.04
1.57E+18,21506,1.57E+18,base_imu_link,-0.036294894,0.060821086,-0.307858928,0.948792051,0.0025,0,0,0,0.0025,0,0,0,0.0025,-0.03,0,0.03,0.02,0,0,0,0.02,0,0,0,0.02,-0.962596797,-1.024650391,9.585748047,0.04,0,0,0,0.04,0,0,0,0.04
1.57E+18,21507,1.57E+18,base_imu_link,-0.036086975,0.061134318,-0.308089856,0.948704889,0.0025,0,0,0,0.0025,0,0,0,0.0025,-0.03,0,0.03,0.02,0,0,0,0.02,0,0,0,0.02,-0.986345703,-0.914715938,9.743946406,0.04,0,0,0,0.04,0,0,0,0.04
1.57E+18,21508,1.57E+18,base_imu_link,-0.035414277,0.061267462,-0.307856162,0.948797508,0.0025,0,0,0,0.0025,0,0,0,0.0025,-0.04,0,0.03,0.02,0,0,0,0.02,0,0,0,0.02,-0.928888672,-1.154120234,9.700662109,0.04,0,0,0,0.04,0,0,0,0.04
1.57E+18,21509,1.57E+18,base_imu_link,-0.036141435,0.061377646,-0.307239393,0.948962874,0.0025,0,0,0,0.0025,0,0,0,0.0025,-0.04,-0.01,0.03,0.02,0,0,0,0.02,0,0,0,0.02,-0.938464844,-0.957617188,9.767695313,0.04,0,0,0,0.04,0,0,0,0.04
1.57E+18,21510,1.57E+18,base_imu_link,-0.035700642,0.061259165,-0.307680186,0.948844393,0.0025,0,0,0,0.0025,0,0,0,0.0025,-0.03,-0.01,0.02,0.02,0,0,0,0.02,0,0,0,0.02,-0.866835078,-1.024650391,9.729390625,0.04,0,0,0,0.04,0,0,0,0.04
1.57E+18,21511,1.57E+18,base_imu_link,-0.035770083,0.060809611,-0.307465405,0.948940313,0.0025,0,0,0,0.0025,0,0,0,0.0025,-0.03,-0.01,0.03,0.02,0,0,0,0.02,0,0,0,0.02,-0.852279297,-1.125391719,9.724794063,0.04,0,0,0,0.04,0,0,0,0.04
1.57E+18,21512,1.57E+18,base_imu_link,-0.036265861,0.060695739,-0.307455898,0.948931866,0.0025,0,0,0,0.0025,0,0,0,0.0025,-0.03,0,0.03,0.02,0,0,0,0.02,0,0,0,0.02,-0.885987422,-0.957617188,9.738966797,0.04,0,0,0,0.04,0,0,0,0.04
1.57E+18,21513,1.57E+18,base_imu_link,-0.035796238,0.060452068,-0.307493273,0.948953141,0.0025,0,0,0,0.0025,0,0,0,0.0025,-0.03,0.01,0.03,0.02,0,0,0,0.02,0,0,0,0.02,-0.828530391,-1.062955078,9.566595703,0.04,0,0,0,0.04,0,0,0,0.04
1.57E+18,21514,1.57E+18,base_imu_link,-0.036142176,0.060275074,-0.307245953,0.949031392,0.0025,0,0,0,0.0025,0,0,0,0.0025,-0.03,0,0.03,0.02,0,0,0,0.02,0,0,0,0.02,-1.010477656,-0.933868281,9.619456172,0.04,0,0,0,0.04,0,0,0,0.04
1.57E+18,21515,1.57E+18,base_imu_link,-0.035558741,0.060707405,-0.306901576,0.949137297,0.0025,0,0,0,0.0025,0,0,0,0.0025,-0.04,0,0.02,0.02,0,0,0,0.02,0,0,0,0.02,-0.962596797,-0.909736328,9.514118281,0.04,0,0,0,0.04,0,0,0,0.04
1.57E+18,21516,1.57E+18,base_imu_link,-0.035052411,0.060827696,-0.307076897,0.949091723,0.0025,0,0,0,0.0025,0,0,0,0.0025,-0.04,-0.01,0.02,0.02,0,0,0,0.02,0,0,0,0.02,-0.953020625,-1.02963,9.667337031,0.04,0,0,0,0.04,0,0,0,0.04
1.57E+18,21517,1.57E+18,base_imu_link,-0.035108029,0.060937183,-0.307065979,0.949086177,0.0025,0,0,0,0.0025,0,0,0,0.0025,-0.03,-0.01,0.03,0.02,0,0,0,0.02,0,0,0,0.02,-1.005498047,-0.9193125,9.786847656,0.04,0,0,0,0.04,0,0,0,0.04
1.57E+18,21518,1.57E+18,base_imu_link,-0.03441411,0.061083369,-0.30716371,0.94907057,0.0025,0,0,0,0.0025,0,0,0,0.0025,-0.03,0,0.03,0.02,0,0,0,0.02,0,0,0,0.02,-0.794822266,-1.02963,9.686489375,0.04,0,0,0,0.04,0,0,0,0.04
1.57E+18,21519,1.57E+18,base_imu_link,-0.034676849,0.060537395,-0.307363,0.949031467,0.0025,0,0,0,0.0025,0,0,0,0.0025,-0.03,0,0.03,0.02,0,0,0,0.02,0,0,0,0.02,-0.933868281,-1.082107422,9.734370234,0.04,0,0,0,0.04,0,0,0,0.04
1.57E+18,21520,1.57E+18,base_imu_link,-0.035028579,0.060699874,-0.306590809,0.949257921,0.0025,0,0,0,0.0025,0,0,0,0.0025,-0.03,0,0.03,0.02,0,0,0,0.02,0,0,0,0.02,-0.986345703,-0.823550781,9.868053594,0.04,0,0,0,0.04,0,0,0,0.04
1.57E+18,21521,1.57E+18,base_imu_link,-0.033925862,0.060709623,-0.306632173,0.949283987,0.0025,0,0,0,0.0025,0,0,0,0.0025,-0.03,0,0.03,0.02,0,0,0,0.02,0,0,0,0.02,-0.905139766,-1.062955078,9.514118281,0.04,0,0,0,0.04,0,0,0,0.04
1.57E+18,21522,1.57E+18,base_imu_link,-0.034335404,0.060778689,-0.307108197,0.949110945,0.0025,0,0,0,0.0025,0,0,0,0.0025,-0.04,-0.01,0.03,0.02,0,0,0,0.02,0,0,0,0.02,-0.976769531,-1.053378906,9.667337031,0.04,0,0,0,0.04,0,0,0,0.04
1.57E+18,21523,1.57E+18,base_imu_link,-0.034606427,0.061121884,-0.306738908,0.949198479,0.0025,0,0,0,0.0025,0,0,0,0.0025,-0.03,-0.01,0.02,0.02,0,0,0,0.02,0,0,0,0.02,-0.905139766,-0.986345703,9.667337031,0.04,0,0,0,0.04,0,0,0,0.04
1.57E+18,21524,1.57E+18,base_imu_link,-0.034463218,0.060920997,-0.307257666,0.949048811,0.0025,0,0,0,0.0025,0,0,0,0.0025,-0.03,-0.01,0.03,0.02,0,0,0,0.02,0,0,0,0.02,-0.794822266,-1.087087031,9.509138672,0.04,0,0,0,0.04,0,0,0,0.04
1.57E+18,21525,1.57E+18,base_imu_link,-0.035128739,0.060582687,-0.307176513,0.949072336,0.0025,0,0,0,0.0025,0,0,0,0.0025,-0.03,0,0.03,0.02,0,0,0,0.02,0,0,0,0.02,-0.967193359,-0.986345703,9.638608516,0.04,0,0,0,0.04,0,0,0,0.04
1.57E+18,21526,1.57E+18,base_imu_link,-0.034870179,0.060850706,-0.306916268,0.949148917,0.0025,0,0,0,0.0025,0,0,0,0.0025,-0.03,0,0.03,0.02,0,0,0,0.02,0,0,0,0.02,-0.828530391,-1.043802734,9.724794063,0.04,0,0,0,0.04,0,0,0,0.04
1.57E+18,21527,1.57E+18,base_imu_link,-0.035094235,0.060460943,-0.306856075,0.949185029,0.0025,0,0,0,0.0025,0,0,0,0.0025,-0.03,0.01,0.03,0.02,0,0,0,0.02,0,0,0,0.02,-0.995921875,-1.067934688,9.537867188,0.04,0,0,0,0.04,0,0,0,0.04
1.57E+18,21528,1.57E+18,base_imu_link,-0.035246469,0.061073464,-0.307049712,0.949077548,0.0025,0,0,0,0.0025,0,0,0,0.0025,-0.03,0,0.03,0.02,0,0,0,0.02,0,0,0,0.02,-1.020053828,-0.905139766,9.853880859,0.04,0,0,0,0.04,0,0,0,0.04
1.57E+18,21529,1.57E+18,base_imu_link,-0.034503927,0.061314401,-0.307473138,0.948952208,0.0025,0,0,0,0.0025,0,0,0,0.0025,-0.04,-0.01,0.03,0.02,0,0,0,0.02,0,0,0,0.02,-0.957617188,-1.015074219,9.485389766,0.04,0,0,0,0.04,0,0,0,0.04
1.57E+18,21530,1.57E+18,base_imu_link,-0.034554136,0.061426926,-0.307544998,0.948919817,0.0025,0,0,0,0.0025,0,0,0,0.0025,-0.03,-0.01,0.02,0.02,0,0,0,0.02,0,0,0,0.02,-1.039206172,-1.02963,9.873033203,0.04,0,0,0,0.04,0,0,0,0.04
1.57E+18,21531,1.57E+18,base_imu_link,-0.034423279,0.061837288,-0.307434164,0.948933835,0.0025,0,0,0,0.0025,0,0,0,0.0025,-0.03,-0.01,0.03,0.02,0,0,0,0.02,0,0,0,0.02,-0.885987422,-1.024650391,9.710238281,0.04,0,0,0,0.04,0,0,0,0.04
1.57E+18,21532,1.57E+18,base_imu_link,-0.034553721,0.061494529,-0.307125325,0.949051367,0.0025,0,0,0,0.0025,0,0,0,0.0025,-0.03,0,0.03,0.02,0,0,0,0.02,0,0,0,0.02,-0.823550781,-1.067934688,9.772674922,0.04,0,0,0,0.04,0,0,0,0.04
1.57E+18,21533,1.57E+18,base_imu_link,-0.03486133,0.061064187,-0.307479501,0.948953218,0.0025,0,0,0,0.0025,0,0,0,0.0025,-0.03,0,0.03,0.02,0,0,0,0.02,0,0,0,0.02,-0.813974609,-0.995921875,9.710238281,0.04,0,0,0,0.04,0,0,0,0.04
1.57E+18,21534,1.57E+18,base_imu_link,-0.034963094,0.060529073,-0.307187082,0.949078453,0.0025,0,0,0,0.0025,0,0,0,0.0025,-0.03,0.01,0.03,0.02,0,0,0,0.02,0,0,0,0.02,-0.9193125,-1.024650391,9.753522578,0.04,0,0,0,0.04,0,0,0,0.04
1.57E+18,21535,1.57E+18,base_imu_link,-0.035045916,0.06055588,-0.307181798,0.949075398,0.0025,0,0,0,0.0025,0,0,0,0.0025,-0.04,0,0.03,0.02,0,0,0,0.02,0,0,0,0.02,-0.972172969,-1.096663203,9.724794063,0.04,0,0,0,0.04,0,0,0,0.04
1.57E+18,21536,1.57E+18,base_imu_link,-0.035335835,0.060962653,-0.307800956,0.948837976,0.0025,0,0,0,0.0025,0,0,0,0.0025,-0.04,-0.01,0.02,0.02,0,0,0,0.02,0,0,0,0.02,-0.981749141,-1.005498047,9.60988,0.04,0,0,0,0.04,0,0,0,0.04
1.57E+18,21537,1.57E+18,base_imu_link,-0.035280726,0.061195266,-0.307370016,0.948964743,0.0025,0,0,0,0.0025,0,0,0,0.0025,-0.04,-0.01,0.02,0.02,0,0,0,0.02,0,0,0,0.02,-0.933868281,-1.158716797,9.614476563,0.04,0,0,0,0.04,0,0,0,0.04
1.57E+18,21538,1.57E+18,base_imu_link,-0.035932501,0.061416108,-0.307492835,0.948886228,0.0025,0,0,0,0.0025,0,0,0,0.0025,-0.03,-0.01,0.03,0.02,0,0,0,0.02,0,0,0,0.02,-0.928888672,-1.034226563,9.753522578,0.04,0,0,0,0.04,0,0,0,0.04
1.57E+18,21539,1.57E+18,base_imu_link,-0.035844338,0.061392402,-0.307580999,0.948862522,0.0025,0,0,0,0.0025,0,0,0,0.0025,-0.03,0,0.03,0.02,0,0,0,0.02,0,0,0,0.02,-0.790225703,-1.015074219,9.729390625,0.04,0,0,0,0.04,0,0,0,0.04
1.57E+18,21540,1.57E+18,base_imu_link,-0.035902083,0.060674223,-0.307554221,0.948915212,0.0025,0,0,0,0.0025,0,0,0,0.0025,-0.03,0,0.03,0.02,0,0,0,0.02,0,0,0,0.02,-0.976769531,-1.010477656,9.480410156,0.04,0,0,0,0.04,0,0,0,0.04
1.57E+18,21541,1.57E+18,base_imu_link,-0.035733246,0.06117338,-0.307603053,0.948873708,0.0025,0,0,0,0.0025,0,0,0,0.0025,-0.03,0.01,0.03,0.02,0,0,0,0.02,0,0,0,0.02,-0.909736328,-0.924292109,9.786847656,0.04,0,0,0,0.04,0,0,0,0.04
1.57E+18,21542,1.57E+18,base_imu_link,-0.035257707,0.061000008,-0.307303796,0.948999615,0.0025,0,0,0,0.0025,0,0,0,0.0025,-0.04,0,0.03,0.02,0,0,0,0.02,0,0,0,0.02,-0.87641125,-0.991325313,9.561999141,0.04,0,0,0,0.04,0,0,0,0.04
1.57E+18,21543,1.57E+18,base_imu_link,-0.035224039,0.060810899,-0.307403166,0.948980819,0.0025,0,0,0,0.0025,0,0,0,0.0025,-0.04,-0.01,0.02,0.02,0,0,0,0.02,0,0,0,0.02,-1.015074219,-1.000901484,9.581151484,0.04,0,0,0,0.04,0,0,0,0.04
1.57E+18,21544,1.57E+18,base_imu_link,-0.035071835,0.061233481,-0.307623496,0.948887882,0.0025,0,0,0,0.0025,0,0,0,0.0025,-0.03,-0.01,0.03,0.02,0,0,0,0.02,0,0,0,0.02,-0.924292109,-1.058358516,9.887205938,0.04,0,0,0,0.04,0,0,0,0.04
1.57E+18,21545,1.57E+18,base_imu_link,-0.035193159,0.061104199,-0.307877822,0.948809235,0.0025,0,0,0,0.0025,0,0,0,0.0025,-0.03,-0.01,0.03,0.02,0,0,0,0.02,0,0,0,0.02,-0.804398438,-1.005498047,9.523694453,0.04,0,0,0,0.04,0,0,0,0.04
1.57E+18,21546,1.57E+18,base_imu_link,-0.035279311,0.060578253,-0.307834042,0.948853966,0.0025,0,0,0,0.0025,0,0,0,0.0025,-0.03,0,0.03,0.02,0,0,0,0.02,0,0,0,0.02,-0.852279297,-0.885987422,9.657760859,0.04,0,0,0,0.04,0,0,0,0.04
1.57E+18,21547,1.57E+18,base_imu_link,-0.03469868,0.060115305,-0.307892898,0.948885723,0.0025,0,0,0,0.0025,0,0,0,0.0025,-0.03,0,0.03,0.02,0,0,0,0.02,0,0,0,0.02,-0.914715938,-0.962596797,9.700662109,0.04,0,0,0,0.04,0,0,0,0.04
1.57E+18,21548,1.57E+18,base_imu_link,-0.0344943,0.06021789,-0.307643895,0.94896743,0.0025,0,0,0,0.0025,0,0,0,0.0025,-0.03,0,0.03,0.02,0,0,0,0.02,0,0,0,0.02,-1.020053828,-0.938464844,9.801403438,0.04,0,0,0,0.04,0,0,0,0.04
1.57E+18,21549,1.57E+18,base_imu_link,-0.03403659,0.060585819,-0.307052084,0.949152194,0.0025,0,0,0,0.0025,0,0,0,0.0025,-0.04,0,0.03,0.02,0,0,0,0.02,0,0,0,0.02,-0.905139766,-1.115815547,9.786847656,0.04,0,0,0,0.04,0,0,0,0.04
1.57E+18,21550,1.57E+18,base_imu_link,-0.034633752,0.060629151,-0.307605883,0.948948486,0.0025,0,0,0,0.0025,0,0,0,0.0025,-0.04,-0.01,0.02,0.02,0,0,0,0.02,0,0,0,0.02,-0.895563594,-1.087087031,9.638608516,0.04,0,0,0,0.04,0,0,0,0.04
1.57E+18,21551,1.57E+18,base_imu_link,-0.035102301,0.060598009,-0.307590594,0.948938215,0.0025,0,0,0,0.0025,0,0,0,0.0025,-0.03,-0.01,0.03,0.02,0,0,0,0.02,0,0,0,0.02,-0.933868281,-1.043802734,9.844304688,0.04,0,0,0,0.04,0,0,0,0.04
1.57E+18,21552,1.57E+18,base_imu_link,-0.035075857,0.060613319,-0.308004617,0.948803913,0.0025,0,0,0,0.0025,0,0,0,0.0025,-0.03,-0.01,0.03,0.02,0,0,0,0.02,0,0,0,0.02,-0.746941406,-1.058358516,9.552422969,0.04,0,0,0,0.04,0,0,0,0.04
1.57E+18,21553,1.57E+18,base_imu_link,-0.035601185,0.05993132,-0.307542363,0.948977601,0.0025,0,0,0,0.0025,0,0,0,0.0025,-0.03,0,0.03,0.02,0,0,0,0.02,0,0,0,0.02,-0.928888672,-0.938464844,9.571575313,0.04,0,0,0,0.04,0,0,0,0.04
1.57E+18,21554,1.57E+18,base_imu_link,-0.035152547,0.060017587,-0.306806368,0.949227075,0.0025,0,0,0,0.0025,0,0,0,0.0025,-0.03,0,0.03,0.02,0,0,0,0.02,0,0,0,0.02,-0.741961797,-1.015074219,9.629032344,0.04,0,0,0,0.04,0,0,0,0.04
1.57E+18,21555,1.57E+18,base_imu_link,-0.035432032,0.059395078,-0.307176959,0.949135982,0.0025,0,0,0,0.0025,0,0,0,0.0025,-0.03,0,0.03,0.02,0,0,0,0.02,0,0,0,0.02,-0.948041016,-0.991325313,9.624052734,0.04,0,0,0,0.04,0,0,0,0.04
1.57E+18,21556,1.57E+18,base_imu_link,-0.035245611,0.059695991,-0.307077107,0.949156355,0.0025,0,0,0,0.0025,0,0,0,0.0025,-0.04,0,0.03,0.02,0,0,0,0.02,0,0,0,0.02,-1.010477656,-1.000901484,9.657760859,0.04,0,0,0,0.04,0,0,0,0.04
1.57E+18,21557,1.57E+18,base_imu_link,-0.035071936,0.060198306,-0.307209382,0.949088257,0.0025,0,0,0,0.0025,0,0,0,0.0025,-0.04,-0.01,0.03,0.02,0,0,0,0.02,0,0,0,0.02,-0.905139766,-1.082107422,9.724794063,0.04,0,0,0,0.04,0,0,0,0.04
1.57E+18,21558,1.57E+18,base_imu_link,-0.035414672,0.060232121,-0.307442405,0.948997924,0.0025,0,0,0,0.0025,0,0,0,0.0025,-0.03,-0.01,0.03,0.02,0,0,0,0.02,0,0,0,0.02,-0.967193359,-1.02963,9.729390625,0.04,0,0,0,0.04,0,0,0,0.04
1.57E+18,21559,1.57E+18,base_imu_link,-0.035348806,0.060470919,-0.307177147,0.949071088,0.0025,0,0,0,0.0025,0,0,0,0.0025,-0.03,-0.01,0.03,0.02,0,0,0,0.02,0,0,0,0.02,-0.895563594,-0.890583984,9.418356563,0.04,0,0,0,0.04,0,0,0,0.04
1.57E+18,21560,1.57E+18,base_imu_link,-0.034856275,0.060374524,-0.306706222,0.949247729,0.0025,0,0,0,0.0025,0,0,0,0.0025,-0.03,0,0.03,0.02,0,0,0,0.02,0,0,0,0.02,-0.852279297,-1.020053828,9.667337031,0.04,0,0,0,0.04,0,0,0,0.04
1.57E+18,21561,1.57E+18,base_imu_link,-0.034927281,0.060132499,-0.306888568,0.949201546,0.0025,0,0,0,0.0025,0,0,0,0.0025,-0.03,0,0.03,0.02,0,0,0,0.02,0,0,0,0.02,-1.020053828,-0.866835078,9.629032344,0.04,0,0,0,0.04,0,0,0,0.04
1.57E+18,21562,1.57E+18,base_imu_link,-0.034068308,0.060567989,-0.306555067,0.949312836,0.0025,0,0,0,0.0025,0,0,0,0.0025,-0.04,0,0.03,0.02,0,0,0,0.02,0,0,0,0.02,-0.953020625,-1.039206172,9.65278125,0.04,0,0,0,0.04,0,0,0,0.04
1.57E+18,21563,1.57E+18,base_imu_link,-0.034318822,0.060855394,-0.306936993,0.94916201,0.0025,0,0,0,0.0025,0,0,0,0.0025,-0.04,0,0.02,0.02,0,0,0,0.02,0,0,0,0.02,-1.024650391,-1.039206172,9.825152344,0.04,0,0,0,0.04,0,0,0,0.04
1.57E+18,21564,1.57E+18,base_imu_link,-0.034276863,0.061221942,-0.307157911,0.949068485,0.0025,0,0,0,0.0025,0,0,0,0.0025,-0.03,-0.01,0.02,0.02,0,0,0,0.02,0,0,0,0.02,-0.9193125,-1.005498047,9.724794063,0.04,0,0,0,0.04,0,0,0,0.04
1.57E+18,21565,1.57E+18,base_imu_link,-0.034341417,0.061118286,-0.306583665,0.949258489,0.0025,0,0,0,0.0025,0,0,0,0.0025,-0.03,-0.01,0.03,0.02,0,0,0,0.02,0,0,0,0.02,-0.852279297,-1.024650391,9.729390625,0.04,0,0,0,0.04,0,0,0,0.04
1.57E+18,21566,1.57E+18,base_imu_link,-0.03446133,0.060713776,-0.306859959,0.949190824,0.0025,0,0,0,0.0025,0,0,0,0.0025,-0.03,-0.01,0.03,0.02,0,0,0,0.02,0,0,0,0.02,-0.804398438,-1.000901484,9.715217891,0.04,0,0,0,0.04,0,0,0,0.04
1.57E+18,21567,1.57E+18,base_imu_link,-0.034563519,0.060111092,-0.306986846,0.949184437,0.0025,0,0,0,0.0025,0,0,0,0.0025,-0.03,0,0.03,0.02,0,0,0,0.02,0,0,0,0.02,-0.957617188,-0.943444453,9.873033203,0.04,0,0,0,0.04,0,0,0,0.04
1.57E+18,21568,1.57E+18,base_imu_link,-0.034176915,0.060237134,-0.306577109,0.949322865,0.0025,0,0,0,0.0025,0,0,0,0.0025,-0.03,0,0.03,0.02,0,0,0,0.02,0,0,0,0.02,-0.948041016,-0.948041016,9.896782109,0.04,0,0,0,0.04,0,0,0,0.04
1.57E+18,21569,1.57E+18,base_imu_link,-0.033797366,0.060224632,-0.306923999,0.949225153,0.0025,0,0,0,0.0025,0,0,0,0.0025,-0.03,0,0.03,0.02,0,0,0,0.02,0,0,0,0.02,-1.039206172,-0.909736328,9.585748047,0.04,0,0,0,0.04,0,0,0,0.04
1.57E+18,21570,1.57E+18,base_imu_link,-0.033275102,0.060764632,-0.306487116,0.949350344,0.0025,0,0,0,0.0025,0,0,0,0.0025,-0.04,0,0.03,0.02,0,0,0,0.02,0,0,0,0.02,-0.953020625,-0.995921875,9.825152344,0.04,0,0,0,0.04,0,0,0,0.04
1.57E+18,21571,1.57E+18,base_imu_link,-0.033363253,0.060788467,-0.306398964,0.949374178,0.0025,0,0,0,0.0025,0,0,0,0.0025,-0.04,-0.01,0.03,0.02,0,0,0,0.02,0,0,0,0.02,-0.981749141,-1.110835938,9.676913203,0.04,0,0,0,0.04,0,0,0,0.04
1.57E+18,21572,1.57E+18,base_imu_link,-0.033888908,0.061141053,-0.306350716,0.949348488,0.0025,0,0,0,0.0025,0,0,0,0.0025,-0.03,-0.01,0.03,0.02,0,0,0,0.02,0,0,0,0.02,-0.881007813,-0.962596797,9.657760859,0.04,0,0,0,0.04,0,0,0,0.04
1.57E+18,21573,1.57E+18,base_imu_link,-0.03380994,0.060836486,-0.306295073,0.949388823,0.0025,0,0,0,0.0025,0,0,0,0.0025,-0.03,0,0.03,0.02,0,0,0,0.02,0,0,0,0.02,-0.751537969,-1.015074219,9.509138672,0.04,0,0,0,0.04,0,0,0,0.04
1.57E+18,21574,1.57E+18,base_imu_link,-0.034171658,0.060240116,-0.306659952,0.949296108,0.0025,0,0,0,0.0025,0,0,0,0.0025,-0.03,0,0.03,0.02,0,0,0,0.02,0,0,0,0.02,-0.838106563,-0.953020625,9.676913203,0.04,0,0,0,0.04,0,0,0,0.04
1.57E+18,21575,1.57E+18,base_imu_link,-0.034036982,0.059826002,-0.306614786,0.949341723,0.0025,0,0,0,0.0025,0,0,0,0.0025,-0.03,0.01,0.03,0.02,0,0,0,0.02,0,0,0,0.02,-0.938464844,-1.039206172,9.528291016,0.04,0,0,0,0.04,0,0,0,0.04
1.57E+18,21576,1.57E+18,base_imu_link,-0.03428691,0.060181173,-0.306577363,0.949322366,0.0025,0,0,0,0.0025,0,0,0,0.0025,-0.04,0,0.03,0.02,0,0,0,0.02,0,0,0,0.02,-1.015074219,-1.010477656,9.557019531,0.04,0,0,0,0.04,0,0,0,0.04
1.57E+18,21577,1.57E+18,base_imu_link,-0.034273144,0.060807684,-0.306362433,0.949352325,0.0025,0,0,0,0.0025,0,0,0,0.0025,-0.04,-0.01,0.03,0.02,0,0,0,0.02,0,0,0,0.02,-0.909736328,-0.895563594,9.590727656,0.04,0,0,0,0.04,0,0,0,0.04
1.57E+18,21578,1.57E+18,base_imu_link,-0.033854315,0.060609019,-0.306891487,0.94920917,0.0025,0,0,0,0.0025,0,0,0,0.0025,-0.04,-0.01,0.03,0.02,0,0,0,0.02,0,0,0,0.02,-0.818954219,-1.129988281,9.853880859,0.04,0,0,0,0.04,0,0,0,0.04
1.57E+18,21579,1.57E+18,base_imu_link,-0.034651599,0.060134858,-0.306898766,0.949208203,0.0025,0,0,0,0.0025,0,0,0,0.0025,-0.03,-0.01,0.03,0.02,0,0,0,0.02,0,0,0,0.02,-0.818954219,-1.053378906,9.676913203,0.04,0,0,0,0.04,0,0,0,0.04
1.57E+18,21580,1.57E+18,base_imu_link,-0.034963599,0.059768798,-0.306750313,0.949267867,0.0025,0,0,0,0.0025,0,0,0,0.0025,-0.03,0,0.03,0.02,0,0,0,0.02,0,0,0,0.02,-0.890583984,-1.000901484,9.681509766,0.04,0,0,0,0.04,0,0,0,0.04
1.57E+18,21581,1.57E+18,base_imu_link,-0.034875546,0.059745072,-0.306838366,0.949244141,0.0025,0,0,0,0.0025,0,0,0,0.0025,-0.03,0,0.03,0.02,0,0,0,0.02,0,0,0,0.02,-0.905139766,-1.039206172,9.868053594,0.04,0,0,0,0.04,0,0,0,0.04
1.57E+18,21582,1.57E+18,base_imu_link,-0.035015744,0.059738264,-0.305921804,0.949535195,0.0025,0,0,0,0.0025,0,0,0,0.0025,-0.03,0,0.03,0.02,0,0,0,0.02,0,0,0,0.02,-1.091683594,-0.995921875,9.729390625,0.04,0,0,0,0.04,0,0,0,0.04
1.57E+18,21583,1.57E+18,base_imu_link,-0.034624265,0.060627661,-0.306031776,0.949457739,0.0025,0,0,0,0.0025,0,0,0,0.0025,-0.04,0,0.03,0.02,0,0,0,0.02,0,0,0,0.02,-0.943444453,-0.972172969,9.767695313,0.04,0,0,0,0.04,0,0,0,0.04
1.57E+18,21584,1.57E+18,base_imu_link,-0.034404974,0.060671991,-0.306451063,0.949327632,0.0025,0,0,0,0.0025,0,0,0,0.0025,-0.04,-0.01,0.03,0.02,0,0,0,0.02,0,0,0,0.02,-0.948041016,-0.981749141,9.700662109,0.04,0,0,0,0.04,0,0,0,0.04
1.57E+18,21585,1.57E+18,base_imu_link,-0.034284384,0.060733946,-0.306616503,0.949274612,0.0025,0,0,0,0.0025,0,0,0,0.0025,-0.04,-0.01,0.03,0.02,0,0,0,0.02,0,0,0,0.02,-0.914715938,-0.924292109,9.715217891,0.04,0,0,0,0.04,0,0,0,0.04
1.57E+18,21586,1.57E+18,base_imu_link,-0.033870931,0.060532227,-0.307062654,0.94915812,0.0025,0,0,0,0.0025,0,0,0,0.0025,-0.03,-0.01,0.03,0.02,0,0,0,0.02,0,0,0,0.02,-0.818954219,-1.058358516,9.624052734,0.04,0,0,0,0.04,0,0,0,0.04
1.57E+18,21587,1.57E+18,base_imu_link,-0.034396906,0.060125212,-0.306577626,0.949321848,0.0025,0,0,0,0.0025,0,0,0,0.0025,-0.03,0,0.03,0.02,0,0,0,0.02,0,0,0,0.02,-0.881007813,-0.967193359,9.758119141,0.04,0,0,0,0.04,0,0,0,0.04
1.57E+18,21588,1.57E+18,base_imu_link,-0.034180755,0.059959249,-0.306516003,0.94936005,0.0025,0,0,0,0.0025,0,0,0,0.0025,-0.03,0,0.03,0.02,0,0,0,0.02,0,0,0,0.02,-0.890583984,-0.948041016,9.815576172,0.04,0,0,0,0.04,0,0,0,0.04
1.57E+18,21589,1.57E+18,base_imu_link,-0.033964573,0.059793317,-0.306454309,0.94939819,0.0025,0,0,0,0.0025,0,0,0,0.0025,-0.03,0,0.03,0.02,0,0,0,0.02,0,0,0,0.02,-0.972172969,-1.02963,9.686489375,0.04,0,0,0,0.04,0,0,0,0.04
1.57E+18,21590,1.57E+18,base_imu_link,-0.034094071,0.06021038,-0.306582364,0.949325844,0.0025,0,0,0,0.0025,0,0,0,0.0025,-0.04,0,0.03,0.02,0,0,0,0.02,0,0,0,0.02,-0.948041016,-1.096663203,9.595324219,0.04,0,0,0,0.04,0,0,0,0.04
1.57E+18,21591,1.57E+18,base_imu_link,-0.034646822,0.06048036,-0.306539976,0.949302358,0.0025,0,0,0,0.0025,0,0,0,0.0025,-0.04,-0.01,0.02,0.02,0,0,0,0.02,0,0,0,0.02,-0.871431641,-1.115815547,9.542846797,0.04,0,0,0,0.04,0,0,0,0.04
1.57E+18,21592,1.57E+18,base_imu_link,-0.035259898,0.060514499,-0.306845518,0.949178889,0.0025,0,0,0,0.0025,0,0,0,0.0025,-0.03,-0.01,0.03,0.02,0,0,0,0.02,0,0,0,0.02,-0.962596797,-1.07253125,9.705641719,0.04,0,0,0,0.04,0,0,0,0.04
1.57E+18,21593,1.57E+18,base_imu_link,-0.035459326,0.060757129,-0.306735589,0.949191491,0.0025,0,0,0,0.0025,0,0,0,0.0025,-0.03,-0.01,0.03,0.02,0,0,0,0.02,0,0,0,0.02,-0.881007813,-0.909736328,9.705641719,0.04,0,0,0,0.04,0,0,0,0.04
1.57E+18,21594,1.57E+18,base_imu_link,-0.034938333,0.060468755,-0.306281168,0.949375947,0.0025,0,0,0,0.0025,0,0,0,0.0025,-0.03,0,0.03,0.02,0,0,0,0.02,0,0,0,0.02,-0.881007813,-1.010477656,9.619456172,0.04,0,0,0,0.04,0,0,0,0.04
1.57E+18,21595,1.57E+18,base_imu_link,-0.034965464,0.060386038,-0.306286737,0.949378416,0.0025,0,0,0,0.0025,0,0,0,0.0025,-0.03,0.01,0.03,0.02,0,0,0,0.02,0,0,0,0.02,-0.943444453,-0.962596797,9.911337891,0.04,0,0,0,0.04,0,0,0,0.04
1.57E+18,21596,1.57E+18,base_imu_link,-0.034612203,0.060358819,-0.306219406,0.949414811,0.0025,0,0,0,0.0025,0,0,0,0.0025,-0.03,0,0.03,0.02,0,0,0,0.02,0,0,0,0.02,-0.943444453,-0.995921875,9.696065547,0.04,0,0,0,0.04,0,0,0,0.04
1.57E+18,21597,1.57E+18,base_imu_link,-0.034536827,0.060536321,-0.306539708,0.949302886,0.0025,0,0,0,0.0025,0,0,0,0.0025,-0.03,0,0.02,0.02,0,0,0,0.02,0,0,0,0.02,-0.909736328,-1.07253125,9.76309875,0.04,0,0,0,0.04,0,0,0,0.04
1.57E+18,21598,1.57E+18,base_imu_link,-0.034917223,0.060480948,-0.306612544,0.949268977,0.0025,0,0,0,0.0025,0,0,0,0.0025,-0.04,-0.01,0.02,0.02,0,0,0,0.02,0,0,0,0.02,-0.852279297,-0.948041016,9.782251094,0.04,0,0,0,0.04,0,0,0,0.04
1.57E+18,21599,1.57E+18,base_imu_link,-0.034680649,0.059909402,-0.306003741,0.949510309,0.0025,0,0,0,0.0025,0,0,0,0.0025,-0.03,-0.01,0.03,0.02,0,0,0,0.02,0,0,0,0.02,-0.737365234,-1.077510859,9.696065547,0.04,0,0,0,0.04,0,0,0,0.04
1.57E+18,21600,1.57E+18,base_imu_link,-0.035272756,0.059195051,-0.306203915,0.949468768,0.0025,0,0,0,0.0025,0,0,0,0.0025,-0.03,-0.01,0.03,0.02,0,0,0,0.02,0,0,0,0.02,-0.818954219,-1.115815547,9.528291016,0.04,0,0,0,0.04,0,0,0,0.04
1.57E+18,21601,1.57E+18,base_imu_link,-0.035918606,0.059143315,-0.306432977,0.949373874,0.0025,0,0,0,0.0025,0,0,0,0.0025,-0.03,0,0.03,0.02,0,0,0,0.02,0,0,0,0.02,-0.866835078,-0.957617188,9.681509766,0.04,0,0,0,0.04,0,0,0,0.04
1.57E+18,21602,1.57E+18,base_imu_link,-0.035607815,0.05902392,-0.306122187,0.949493269,0.0025,0,0,0,0.0025,0,0,0,0.0025,-0.03,0.01,0.03,0.02,0,0,0,0.02,0,0,0,0.02,-0.953020625,-0.9193125,9.734370234,0.04,0,0,0,0.04,0,0,0,0.04
1.57E+18,21603,1.57E+18,base_imu_link,-0.034969959,0.059280346,-0.306208386,0.949473205,0.0025,0,0,0,0.0025,0,0,0,0.0025,-0.04,0.01,0.03,0.02,0,0,0,0.02,0,0,0,0.02,-1.058358516,-0.948041016,9.796423828,0.04,0,0,0,0.04,0,0,0,0.04
1.57E+18,21604,1.57E+18,base_imu_link,-0.034451207,0.059959782,-0.306588653,0.949326781,0.0025,0,0,0,0.0025,0,0,0,0.0025,-0.04,0,0.03,0.02,0,0,0,0.02,0,0,0,0.02,-1.058358516,-1.082107422,9.643205078,0.04,0,0,0,0.04,0,0,0,0.04
1.57E+18,21605,1.57E+18,base_imu_link,-0.0346529,0.060819815,-0.306015355,0.949449698,0.0025,0,0,0,0.0025,0,0,0,0.0025,-0.04,-0.01,0.02,0.02,0,0,0,0.02,0,0,0,0.02,-0.928888672,-1.07253125,9.772674922,0.04,0,0,0,0.04,0,0,0,0.04
1.57E+18,21606,1.57E+18,base_imu_link,-0.03501143,0.060843909,-0.305999701,0.949440046,0.0025,0,0,0,0.0025,0,0,0,0.0025,-0.04,-0.01,0.03,0.02,0,0,0,0.02,0,0,0,0.02,-0.914715938,-1.020053828,9.619456172,0.04,0,0,0,0.04,0,0,0,0.04
1.57E+18,21607,1.57E+18,base_imu_link,-0.035012026,0.06077647,-0.306419536,0.949308931,0.0025,0,0,0,0.0025,0,0,0,0.0025,-0.03,0,0.03,0.02,0,0,0,0.02,0,0,0,0.02,-0.861855469,-0.933868281,9.76309875,0.04,0,0,0,0.04,0,0,0,0.04
1.57E+18,21608,1.57E+18,base_imu_link,-0.034601668,0.060364859,-0.306385106,0.949361351,0.0025,0,0,0,0.0025,0,0,0,0.0025,-0.03,0,0.03,0.02,0,0,0,0.02,0,0,0,0.02,-0.828530391,-1.077510859,9.676913203,0.04,0,0,0,0.04,0,0,0,0.04
1.57E+18,21609,1.57E+18,base_imu_link,-0.035098199,0.060182997,-0.306795234,0.949222212,0.0025,0,0,0,0.0025,0,0,0,0.0025,-0.03,0.01,0.03,0.02,0,0,0,0.02,0,0,0,0.02,-0.842703125,-0.948041016,9.394224609,0.04,0,0,0,0.04,0,0,0,0.04
1.57E+18,21610,1.57E+18,base_imu_link,-0.035018267,0.059945711,-0.306319779,0.949393715,0.0025,0,0,0,0.0025,0,0,0,0.0025,-0.03,0,0.03,0.02,0,0,0,0.02,0,0,0,0.02,-0.962596797,-1.02963,9.638608516,0.04,0,0,0,0.04,0,0,0,0.04
1.57E+18,21611,1.57E+18,base_imu_link,-0.03509206,0.060253456,-0.306458305,0.949326801,0.0025,0,0,0,0.0025,0,0,0,0.0025,-0.04,-0.01,0.02,0.02,0,0,0,0.02,0,0,0,0.02,-1.062955078,-0.981749141,9.767695313,0.04,0,0,0,0.04,0,0,0,0.04
1.57E+18,21612,1.57E+18,base_imu_link,-0.034693268,0.060870755,-0.306672811,0.949232804,0.0025,0,0,0,0.0025,0,0,0,0.0025,-0.04,-0.01,0.02,0.02,0,0,0,0.02,0,0,0,0.02,-0.957617188,-1.039206172,9.782251094,0.04,0,0,0,0.04,0,0,0,0.04
1.57E+18,21613,1.57E+18,base_imu_link,-0.034764898,0.06097112,-0.306413396,0.949307513,0.0025,0,0,0,0.0025,0,0,0,0.0025,-0.03,-0.01,0.02,0.02,0,0,0,0.02,0,0,0,0.02,-0.852279297,-1.096663203,9.585748047,0.04,0,0,0,0.04,0,0,0,0.04
1.57E+18,21614,1.57E+18,base_imu_link,-0.03526118,0.06078937,-0.306823409,0.949168424,0.0025,0,0,0,0.0025,0,0,0,0.0025,-0.03,0,0.03,0.02,0,0,0,0.02,0,0,0,0.02,-0.881007813,-1.005498047,9.700662109,0.04,0,0,0,0.04,0,0,0,0.04
1.57E+18,21615,1.57E+18,base_imu_link,-0.035122701,0.06065312,-0.306839611,0.949177037,0.0025,0,0,0,0.0025,0,0,0,0.0025,-0.03,0,0.03,0.02,0,0,0,0.02,0,0,0,0.02,-0.794822266,-0.976769531,9.710238281,0.04,0,0,0,0.04,0,0,0,0.04
1.57E+18,21616,1.57E+18,base_imu_link,-0.035173495,0.060005313,-0.306475007,0.949334113,0.0025,0,0,0,0.0025,0,0,0,0.0025,-0.03,0,0.03,0.02,0,0,0,0.02,0,0,0,0.02,-1.087087031,-1.015074219,9.786847656,0.04,0,0,0,0.04,0,0,0,0.04
1.57E+18,21617,1.57E+18,base_imu_link,-0.034890835,0.060906018,-0.306165126,0.949387172,0.0025,0,0,0,0.0025,0,0,0,0.0025,-0.04,0,0.03,0.02,0,0,0,0.02,0,0,0,0.02,-0.967193359,-0.943444453,9.561999141,0.04,0,0,0,0.04,0,0,0,0.04
1.57E+18,21618,1.57E+18,base_imu_link,-0.034539587,0.061086075,-0.30649573,0.949281768,0.0025,0,0,0,0.0025,0,0,0,0.0025,-0.04,-0.01,0.03,0.02,0,0,0,0.02,0,0,0,0.02,-0.905139766,-1.096663203,9.600303828,0.04,0,0,0,0.04,0,0,0,0.04
1.57E+18,21619,1.57E+18,base_imu_link,-0.035069613,0.061093383,-0.306806274,0.949161541,0.0025,0,0,0,0.0025,0,0,0,0.0025,-0.04,-0.01,0.02,0.02,0,0,0,0.02,0,0,0,0.02,-0.938464844,-1.087087031,9.590727656,0.04,0,0,0,0.04,0,0,0,0.04
1.57E+18,21620,1.57E+18,base_imu_link,-0.035368397,0.061286255,-0.306862112,0.949119969,0.0025,0,0,0,0.0025,0,0,0,0.0025,-0.03,-0.01,0.03,0.02,0,0,0,0.02,0,0,0,0.02,-0.871431641,-1.005498047,9.590727656,0.04,0,0,0,0.04,0,0,0,0.04
1.57E+18,21621,1.57E+18,base_imu_link,-0.035377795,0.061005225,-0.306718706,0.949184076,0.0025,0,0,0,0.0025,0,0,0,0.0025,-0.03,0,0.03,0.02,0,0,0,0.02,0,0,0,0.02,-0.804398438,-0.986345703,9.686489375,0.04,0,0,0,0.04,0,0,0,0.04
1.57E+18,21622,1.57E+18,base_imu_link,-0.035412112,0.060433869,-0.306183113,0.949392243,0.0025,0,0,0,0.0025,0,0,0,0.0025,-0.03,0,0.03,0.02,0,0,0,0.02,0,0,0,0.02,-0.813974609,-1.053378906,9.982967656,0.04,0,0,0,0.04,0,0,0,0.04
1.57E+18,21623,1.57E+18,base_imu_link,-0.0355487,0.059953068,-0.306630907,0.949273094,0.0025,0,0,0,0.0025,0,0,0,0.0025,-0.03,0.01,0.03,0.02,0,0,0,0.02,0,0,0,0.02,-0.933868281,-1.024650391,9.681509766,0.04,0,0,0,0.04,0,0,0,0.04
1.57E+18,21624,1.57E+18,base_imu_link,-0.03560346,0.060129713,-0.306200254,0.949398871,0.0025,0,0,0,0.0025,0,0,0,0.0025,-0.04,0,0.03,0.02,0,0,0,0.02,0,0,0,0.02,-1.015074219,-0.885987422,9.710238281,0.04,0,0,0,0.04,0,0,0,0.04
1.57E+18,21625,1.57E+18,base_imu_link,-0.034777907,0.060412264,-0.306208867,0.949408756,0.0025,0,0,0,0.0025,0,0,0,0.0025,-0.04,-0.01,0.02,0.02,0,0,0,0.02,0,0,0,0.02,-0.953020625,-1.067934688,9.767695313,0.04,0,0,0,0.04,0,0,0,0.04
1.57E+18,21626,1.57E+18,base_imu_link,-0.034967614,0.060593463,-0.306684524,0.949236694,0.0025,0,0,0,0.0025,0,0,0,0.0025,-0.03,-0.01,0.03,0.02,0,0,0,0.02,0,0,0,0.02,-0.905139766,-1.062955078,9.825152344,0.04,0,0,0,0.04,0,0,0,0.04
1.57E+18,21627,1.57E+18,base_imu_link,-0.035229839,0.060457,-0.306022363,0.949449379,0.0025,0,0,0,0.0025,0,0,0,0.0025,-0.03,-0.01,0.03,0.02,0,0,0,0.02,0,0,0,0.02,-0.871431641,-0.957617188,9.729390625,0.04,0,0,0,0.04,0,0,0,0.04
1.57E+18,21628,1.57E+18,base_imu_link,-0.034984988,0.060098943,-0.305977259,0.9494957,0.0025,0,0,0,0.0025,0,0,0,0.0025,-0.03,0,0.03,0.02,0,0,0,0.02,0,0,0,0.02,-0.938464844,-0.986345703,9.767695313,0.04,0,0,0,0.04,0,0,0,0.04
1.57E+18,21629,1.57E+18,base_imu_link,-0.034737965,0.060293728,-0.305971118,0.9494944,0.0025,0,0,0,0.0025,0,0,0,0.0025,-0.03,0.01,0.03,0.02,0,0,0,0.02,0,0,0,0.02,-0.885987422,-1.005498047,9.676913203,0.04,0,0,0,0.04,0,0,0,0.04
1.57E+18,21630,1.57E+18,base_imu_link,-0.034660365,0.060264002,-0.305893518,0.949524125,0.0025,0,0,0,0.0025,0,0,0,0.0025,-0.03,0.01,0.03,0.02,0,0,0,0.02,0,0,0,0.02,-0.938464844,-1.043802734,9.638608516,0.04,0,0,0,0.04,0,0,0,0.04
1.57E+18,21631,1.57E+18,base_imu_link,-0.034932335,0.060539283,-0.305944185,0.949480323,0.0025,0,0,0,0.0025,0,0,0,0.0025,-0.04,0,0.03,0.02,0,0,0,0.02,0,0,0,0.02,-0.948041016,-0.967193359,9.619456172,0.04,0,0,0,0.04,0,0,0,0.04
1.57E+18,21632,1.57E+18,base_imu_link,-0.034739517,0.060568612,-0.305949188,0.949483914,0.0025,0,0,0,0.0025,0,0,0,0.0025,-0.04,-0.01,0.02,0.02,0,0,0,0.02,0,0,0,0.02,-1.043802734,-1.010477656,9.557019531,0.04,0,0,0,0.04,0,0,0,0.04
1.57E+18,21633,1.57E+18,base_imu_link,-0.034643324,0.061168339,-0.30573916,0.949516635,0.0025,0,0,0,0.0025,0,0,0,0.0025,-0.04,-0.01,0.03,0.02,0,0,0,0.02,0,0,0,0.02,-0.87641125,-1.197021484,9.715217891,0.04,0,0,0,0.04,0,0,0,0.04
1.57E+18,21634,1.57E+18,base_imu_link,-0.035652478,0.061137129,-0.305868644,0.949439585,0.0025,0,0,0,0.0025,0,0,0,0.0025,-0.03,-0.01,0.03,0.02,0,0,0,0.02,0,0,0,0.02,-0.905139766,-1.039206172,9.65278125,0.04,0,0,0,0.04,0,0,0,0.04
1.57E+18,21635,1.57E+18,base_imu_link,-0.035636471,0.06114646,-0.306117196,0.949359476,0.0025,0,0,0,0.0025,0,0,0,0.0025,-0.03,0,0.03,0.02,0,0,0,0.02,0,0,0,0.02,-0.771073359,-1.010477656,9.629032344,0.04,0,0,0,0.04,0,0,0,0.04
1.57E+18,21636,1.57E+18,base_imu_link,-0.035775911,0.060454905,-0.306084778,0.949408973,0.0025,0,0,0,0.0025,0,0,0,0.0025,-0.03,0.01,0.03,0.02,0,0,0,0.02,0,0,0,0.02,-0.852279297,-0.972172969,9.638608516,0.04,0,0,0,0.04,0,0,0,0.04
1.57E+18,21637,1.57E+18,base_imu_link,-0.035648672,0.060245376,-0.306355093,0.949339888,0.0025,0,0,0,0.0025,0,0,0,0.0025,-0.04,0,0.03,0.02,0,0,0,0.02,0,0,0,0.02,-0.991325313,-0.986345703,9.729390625,0.04,0,0,0,0.04,0,0,0,0.04
1.57E+18,21638,1.57E+18,base_imu_link,-0.035347284,0.060605475,-0.306337601,0.949333882,0.0025,0,0,0,0.0025,0,0,0,0.0025,-0.04,0,0.03,0.02,0,0,0,0.02,0,0,0,0.02,-1.048782344,-0.943444453,9.815576172,0.04,0,0,0,0.04,0,0,0,0.04
1.57E+18,21639,1.57E+18,base_imu_link,-0.034796818,0.060952909,-0.305916298,0.949467821,0.0025,0,0,0,0.0025,0,0,0,0.0025,-0.04,-0.01,0.02,0.02,0,0,0,0.02,0,0,0,0.02,-0.962596797,-1.058358516,9.729390625,0.04,0,0,0,0.04,0,0,0,0.04
1.57E+18,21640,1.57E+18,base_imu_link,-0.034870946,0.061193059,-0.306474388,0.949269654,0.0025,0,0,0,0.0025,0,0,0,0.0025,-0.03,-0.01,0.03,0.02,0,0,0,0.02,0,0,0,0.02,-0.943444453,-1.024650391,9.681509766,0.04,0,0,0,0.04,0,0,0,0.04
1.57E+18,21641,1.57E+18,base_imu_link,-0.034881626,0.061186972,-0.306308705,0.949323129,0.0025,0,0,0,0.0025,0,0,0,0.0025,-0.03,-0.01,0.03,0.02,0,0,0,0.02,0,0,0,0.02,-0.741961797,-1.091683594,9.76309875,0.04,0,0,0,0.04,0,0,0,0.04
1.57E+18,21642,1.57E+18,base_imu_link,-0.035511548,0.060384069,-0.306349141,0.949338137,0.0025,0,0,0,0.0025,0,0,0,0.0025,-0.03,0,0.03,0.02,0,0,0,0.02,0,0,0,0.02,-0.9193125,-0.953020625,9.705641719,0.04,0,0,0,0.04,0,0,0,0.04
1.57E+18,21643,1.57E+18,base_imu_link,-0.035048313,0.060412766,-0.306281466,0.949375361,0.0025,0,0,0,0.0025,0,0,0,0.0025,-0.03,0.01,0.03,0.02,0,0,0,0.02,0,0,0,0.02,-0.962596797,-1.043802734,9.657760859,0.04,0,0,0,0.04,0,0,0,0.04
1.57E+18,21644,1.57E+18,base_imu_link,-0.035230782,0.060799228,-0.305580385,0.949569837,0.0025,0,0,0,0.0025,0,0,0,0.0025,-0.04,0,0.03,0.02,0,0,0,0.02,0,0,0,0.02,-0.847682734,-1.091683594,9.791827266,0.04,0,0,0,0.04,0,0,0,0.04
1.57E+18,21645,1.57E+18,base_imu_link,-0.035676502,0.060504688,-0.305918723,0.949463061,0.0025,0,0,0,0.0025,0,0,0,0.0025,-0.04,0,0.03,0.02,0,0,0,0.02,0,0,0,0.02,-1.010477656,-0.991325313,9.657760859,0.04,0,0,0,0.04,0,0,0,0.04
1.57E+18,21646,1.57E+18,base_imu_link,-0.03535402,0.060877257,-0.306232614,0.949350114,0.0025,0,0,0,0.0025,0,0,0,0.0025,-0.04,-0.01,0.02,0.02,0,0,0,0.02,0,0,0,0.02,-0.967193359,-1.096663203,9.930490234,0.04,0,0,0,0.04,0,0,0,0.04
1.57E+18,21647,1.57E+18,base_imu_link,-0.035575424,0.061040138,-0.306211023,0.949338349,0.0025,0,0,0,0.0025,0,0,0,0.0025,-0.03,-0.01,0.02,0.02,0,0,0,0.02,0,0,0,0.02,-0.813974609,-0.986345703,9.571575313,0.04,0,0,0,0.04,0,0,0,0.04
1.57E+18,21648,1.57E+18,base_imu_link,-0.035594393,0.060410803,-0.306343871,0.949335034,0.0025,0,0,0,0.0025,0,0,0,0.0025,-0.03,-0.01,0.03,0.02,0,0,0,0.02,0,0,0,0.02,-0.976769531,-1.043802734,9.743946406,0.04,0,0,0,0.04,0,0,0,0.04
1.57E+18,21649,1.57E+18,base_imu_link,-0.035480532,0.060744748,-0.30640424,0.949298504,0.0025,0,0,0,0.0025,0,0,0,0.0025,-0.03,0,0.03,0.02,0,0,0,0.02,0,0,0,0.02,-0.847682734,-1.043802734,9.734370234,0.04,0,0,0,0.04,0,0,0,0.04
1.57E+18,21650,1.57E+18,base_imu_link,-0.035687061,0.06049846,-0.305753006,0.94951644,0.0025,0,0,0,0.0025,0,0,0,0.0025,-0.03,0,0.03,0.02,0,0,0,0.02,0,0,0,0.02,-0.871431641,-0.986345703,9.753522578,0.04,0,0,0,0.04,0,0,0,0.04
1.57E+18,21651,1.57E+18,base_imu_link,-0.035497912,0.060249853,-0.305697166,0.949557316,0.0025,0,0,0,0.0025,0,0,0,0.0025,-0.03,0.01,0.03,0.02,0,0,0,0.02,0,0,0,0.02,-1.07253125,-1.000901484,9.782251094,0.04,0,0,0,0.04,0,0,0,0.04
1.57E+18,21652,1.57E+18,base_imu_link,-0.03513406,0.060989236,-0.306232018,0.949351285,0.0025,0,0,0,0.0025,0,0,0,0.0025,-0.04,0,0.02,0.02,0,0,0,0.02,0,0,0,0.02,-0.986345703,-1.07253125,9.729390625,0.04,0,0,0,0.04,0,0,0,0.04
1.57E+18,21653,1.57E+18,base_imu_link,-0.035295843,0.061320618,-0.306281978,0.949307819,0.0025,0,0,0,0.0025,0,0,0,0.0025,-0.04,-0.01,0.02,0.02,0,0,0,0.02,0,0,0,0.02,-0.928888672,-0.924292109,9.509138672,0.04,0,0,0,0.04,0,0,0,0.04
1.57E+18,21654,1.57E+18,base_imu_link,-0.034948443,0.061222854,-0.306551885,0.949239859,0.0025,0,0,0,0.0025,0,0,0,0.0025,-0.03,-0.01,0.03,0.02,0,0,0,0.02,0,0,0,0.02,-0.828530391,-1.087087031,9.815576172,0.04,0,0,0,0.04,0,0,0,0.04
1.57E+18,21655,1.57E+18,base_imu_link,-0.035418883,0.060705649,-0.306078152,0.949408496,0.0025,0,0,0,0.0025,0,0,0,0.0025,-0.03,-0.01,0.03,0.02,0,0,0,0.02,0,0,0,0.02,-0.861855469,-0.948041016,9.671933594,0.04,0,0,0,0.04,0,0,0,0.04
1.57E+18,21656,1.57E+18,base_imu_link,-0.035085973,0.060323926,-0.306121338,0.949431264,0.0025,0,0,0,0.0025,0,0,0,0.0025,-0.03,0,0.03,0.02,0,0,0,0.02,0,0,0,0.02,-0.885987422,-1.129988281,9.657760859,0.04,0,0,0,0.04,0,0,0,0.04
1.57E+18,21657,1.57E+18,base_imu_link,-0.035644817,0.060523359,-0.306415819,0.949302753,0.0025,0,0,0,0.0025,0,0,0,0.0025,-0.03,0.01,0.03,0.02,0,0,0,0.02,0,0,0,0.02,-0.857258906,-0.928888672,9.681509766,0.04,0,0,0,0.04,0,0,0,0.04
1.57E+18,21658,1.57E+18,base_imu_link,-0.035326929,0.060199581,-0.305790541,0.949536815,0.0025,0,0,0,0.0025,0,0,0,0.0025,-0.03,0,0.03,0.02,0,0,0,0.02,0,0,0,0.02,-0.909736328,-0.967193359,9.60988,0.04,0,0,0,0.04,0,0,0,0.04
1.57E+18,21659,1.57E+18,base_imu_link,-0.035145456,0.060155413,-0.306049622,0.949462875,0.0025,0,0,0,0.0025,0,0,0,0.0025,-0.04,0,0.02,0.02,0,0,0,0.02,0,0,0,0.02,-1.07253125,-0.995921875,9.796423828,0.04,0,0,0,0.04,0,0,0,0.04
1.57E+18,21660,1.57E+18,base_imu_link,-0.034714513,0.060858641,-0.306341448,0.949339795,0.0025,0,0,0,0.0025,0,0,0,0.0025,-0.04,-0.01,0.02,0.02,0,0,0,0.02,0,0,0,0.02,-0.909736328,-1.005498047,9.796423828,0.04,0,0,0,0.04,0,0,0,0.04
1.57E+18,21661,1.57E+18,base_imu_link,-0.034817087,0.060598349,-0.306026758,0.949454177,0.0025,0,0,0,0.0025,0,0,0,0.0025,-0.03,-0.01,0.03,0.02,0,0,0,0.02,0,0,0,0.02,-0.804398438,-1.082107422,9.60988,0.04,0,0,0,0.04,0,0,0,0.04
1.57E+18,21662,1.57E+18,base_imu_link,-0.035332183,0.060196498,-0.305707677,0.949563497,0.0025,0,0,0,0.0025,0,0,0,0.0025,-0.03,-0.01,0.03,0.02,0,0,0,0.02,0,0,0,0.02,-0.881007813,-1.067934688,9.782251094,0.04,0,0,0,0.04,0,0,0,0.04
1.57E+18,21663,1.57E+18,base_imu_link,-0.035536342,0.060093691,-0.305956937,0.949482106,0.0025,0,0,0,0.0025,0,0,0,0.0025,-0.03,0,0.03,0.02,0,0,0,0.02,0,0,0,0.02,-0.775669922,-1.043802734,9.619456172,0.04,0,0,0,0.04,0,0,0,0.04
1.57E+18,21664,1.57E+18,base_imu_link,-0.035781809,0.059624022,-0.30598524,0.949493376,0.0025,0,0,0,0.0025,0,0,0,0.0025,-0.03,0.01,0.03,0.02,0,0,0,0.02,0,0,0,0.02,-0.895563594,-0.905139766,9.715217891,0.04,0,0,0,0.04,0,0,0,0.04
1.57E+18,21665,1.57E+18,base_imu_link,-0.035179885,0.059516758,-0.305933209,0.949539364,0.0025,0,0,0,0.0025,0,0,0,0.0025,-0.03,0,0.03,0.02,0,0,0,0.02,0,0,0,0.02,-0.991325313,-0.881007813,9.791827266,0.04,0,0,0,0.04,0,0,0,0.04
1.57E+18,21666,1.57E+18,base_imu_link,-0.034453953,0.059749562,-0.306107774,0.9494951,0.0025,0,0,0,0.0025,0,0,0,0.0025,-0.04,0,0.03,0.02,0,0,0,0.02,0,0,0,0.02,-0.914715938,-1.158716797,9.667337031,0.04,0,0,0,0.04,0,0,0,0.04
1.57E+18,21667,1.57E+18,base_imu_link,-0.035210143,0.059983816,-0.305895034,0.949521151,0.0025,0,0,0,0.0025,0,0,0,0.0025,-0.03,-0.01,0.02,0.02,0,0,0,0.02,0,0,0,0.02,-1.048782344,-1.082107422,9.911337891,0.04,0,0,0,0.04,0,0,0,0.04
1.57E+18,21668,1.57E+18,base_imu_link,-0.035264439,0.060578742,-0.306342889,0.949336963,0.0025,0,0,0,0.0025,0,0,0,0.0025,-0.03,-0.01,0.02,0.02,0,0,0,0.02,0,0,0,0.02,-0.727789063,-0.957617188,9.729390625,0.04,0,0,0,0.04,0,0,0,0.04
1.57E+18,21669,1.57E+18,base_imu_link,-0.035279461,0.059466879,-0.306099277,0.949485272,0.0025,0,0,0,0.0025,0,0,0,0.0025,-0.03,-0.01,0.03,0.02,0,0,0,0.02,0,0,0,0.02,-0.861855469,-0.895563594,9.638608516,0.04,0,0,0,0.04,0,0,0,0.04
1.57E+18,21670,1.57E+18,base_imu_link,-0.034726552,0.059197149,-0.306141036,0.949509047,0.0025,0,0,0,0.0025,0,0,0,0.0025,-0.03,0,0.03,0.02,0,0,0,0.02,0,0,0,0.02,-0.895563594,-0.976769531,9.940066406,0.04,0,0,0,0.04,0,0,0,0.04
1.57E+18,21671,1.57E+18,base_imu_link,-0.034488288,0.059110981,-0.305990796,0.949571526,0.0025,0,0,0,0.0025,0,0,0,0.0025,-0.03,0,0.03,0.02,0,0,0,0.02,0,0,0,0.02,-0.833126953,-0.991325313,9.566595703,0.04,0,0,0,0.04,0,0,0,0.04
1.57E+18,21672,1.57E+18,base_imu_link,-0.034604746,0.058984286,-0.306328024,0.949466433,0.0025,0,0,0,0.0025,0,0,0,0.0025,-0.04,0.01,0.03,0.02,0,0,0,0.02,0,0,0,0.02,-0.962596797,-0.938464844,9.710238281,0.04,0,0,0,0.04,0,0,0,0.04
1.57E+18,21673,1.57E+18,base_imu_link,-0.034273544,0.059220065,-0.305907333,0.949599395,0.0025,0,0,0,0.0025,0,0,0,0.0025,-0.04,0,0.03,0.02,0,0,0,0.02,0,0,0,0.02,-0.995921875,-1.020053828,9.667337031,0.04,0,0,0,0.04,0,0,0,0.04
1.57E+18,21674,1.57E+18,base_imu_link,-0.034276776,0.059769896,-0.305864125,0.949578748,0.0025,0,0,0,0.0025,0,0,0,0.0025,-0.04,-0.01,0.02,0.02,0,0,0,0.02,0,0,0,0.02,-0.928888672,-1.154120234,9.557019531,0.04,0,0,0,0.04,0,0,0,0.04
1.57E+18,21675,1.57E+18,base_imu_link,-0.035052105,0.060134823,-0.306220579,0.949412508,0.0025,0,0,0,0.0025,0,0,0,0.0025,-0.03,-0.01,0.03,0.02,0,0,0,0.02,0,0,0,0.02,-0.866835078,-1.087087031,9.614476563,0.04,0,0,0,0.04,0,0,0,0.04
1.57E+18,21676,1.57E+18,base_imu_link,-0.035463967,0.060060802,-0.305796458,0.94953859,0.0025,0,0,0,0.0025,0,0,0,0.0025,-0.03,0,0.03,0.02,0,0,0,0.02,0,0,0,0.02,-0.651179688,-0.933868281,9.715217891,0.04,0,0,0,0.04,0,0,0,0.04
1.57E+18,21677,1.57E+18,base_imu_link,-0.035450794,0.058689387,-0.305988454,0.949562985,0.0025,0,0,0,0.0025,0,0,0,0.0025,-0.03,0,0.03,0.02,0,0,0,0.02,0,0,0,0.02,-0.857258906,-0.953020625,9.523694453,0.04,0,0,0,0.04,0,0,0,0.04
1.57E+18,21678,1.57E+18,base_imu_link,-0.035200715,0.058676665,-0.305583958,0.949703324,0.0025,0,0,0,0.0025,0,0,0,0.0025,-0.03,0,0.03,0.02,0,0,0,0.02,0,0,0,0.02,-0.909736328,-1.015074219,9.753522578,0.04,0,0,0,0.04,0,0,0,0.04
1.57E+18,21679,1.57E+18,base_imu_link,-0.035261668,0.058783006,-0.305490458,0.949724567,0.0025,0,0,0,0.0025,0,0,0,0.0025,-0.04,0,0.03,0.02,0,0,0,0.02,0,0,0,0.02,-0.881007813,-1.000901484,9.638608516,0.04,0,0,0,0.04,0,0,0,0.04
1.57E+18,21680,1.57E+18,base_imu_link,-0.035225753,0.058804535,-0.306070555,0.949537776,0.0025,0,0,0,0.0025,0,0,0,0.0025,-0.04,-0.01,0.02,0.02,0,0,0,0.02,0,0,0,0.02,-1.020053828,-1.010477656,9.753522578,0.04,0,0,0,0.04,0,0,0,0.04
1.57E+18,21681,1.57E+18,base_imu_link,-0.035067156,0.05936533,-0.305534765,0.949681294,0.0025,0,0,0,0.0025,0,0,0,0.0025,-0.03,-0.01,0.03,0.02,0,0,0,0.02,0,0,0,0.02,-0.905139766,-0.933868281,9.887205938,0.04,0,0,0,0.04,0,0,0,0.04
1.57E+18,21682,1.57E+18,base_imu_link,-0.034664344,0.059158336,-0.30581474,0.949618881,0.0025,0,0,0,0.0025,0,0,0,0.0025,-0.03,-0.01,0.03,0.02,0,0,0,0.02,0,0,0,0.02,-0.890583984,-1.091683594,9.537867188,0.04,0,0,0,0.04,0,0,0,0.04
1.57E+18,21683,1.57E+18,base_imu_link,-0.035129298,0.059404259,-0.305861064,0.949571522,0.0025,0,0,0,0.0025,0,0,0,0.0025,-0.03,0,0.03,0.02,0,0,0,0.02,0,0,0,0.02,-0.885987422,-0.948041016,9.700662109,0.04,0,0,0,0.04,0,0,0,0.04
1.57E+18,21684,1.57E+18,base_imu_link,-0.034834049,0.059276222,-0.305301657,0.949770402,0.0025,0,0,0,0.0025,0,0,0,0.0025,-0.03,0,0.03,0.02,0,0,0,0.02,0,0,0,0.02,-0.924292109,-1.010477656,9.710238281,0.04,0,0,0,0.04,0,0,0,0.04
1.57E+18,21685,1.57E+18,base_imu_link,-0.034795543,0.059432627,-0.305042002,0.949845466,0.0025,0,0,0,0.0025,0,0,0,0.0025,-0.03,0,0.03,0.02,0,0,0,0.02,0,0,0,0.02,-1.020053828,-1.015074219,9.595324219,0.04,0,0,0,0.04,0,0,0,0.04
1.57E+18,21686,1.57E+18,base_imu_link,-0.034729465,0.060157039,-0.305236086,0.949739926,0.0025,0,0,0,0.0025,0,0,0,0.0025,-0.04,0,0.03,0.02,0,0,0,0.02,0,0,0,0.02,-0.948041016,-1.010477656,9.734370234,0.04,0,0,0,0.04,0,0,0,0.04
1.57E+18,21687,1.57E+18,base_imu_link,-0.034664863,0.060328591,-0.305390769,0.949681676,0.0025,0,0,0,0.0025,0,0,0,0.0025,-0.04,-0.01,0.03,0.02,0,0,0,0.02,0,0,0,0.02,-0.928888672,-1.101259766,9.65278125,0.04,0,0,0,0.04,0,0,0,0.04
1.57E+18,21688,1.57E+18,base_imu_link,-0.035140994,0.060500756,-0.305690616,0.949556747,0.0025,0,0,0,0.0025,0,0,0,0.0025,-0.03,-0.01,0.03,0.02,0,0,0,0.02,0,0,0,0.02,-0.838106563,-1.106239375,9.724794063,0.04,0,0,0,0.04,0,0,0,0.04
1.57E+18,21689,1.57E+18,base_imu_link,-0.035690722,0.060220474,-0.305692255,0.949553533,0.0025,0,0,0,0.0025,0,0,0,0.0025,-0.03,-0.01,0.03,0.02,0,0,0,0.02,0,0,0,0.02,-0.828530391,-1.020053828,9.696065547,0.04,0,0,0,0.04,0,0,0,0.04
1.57E+18,21690,1.57E+18,base_imu_link,-0.035737073,0.059850389,-0.305388411,0.949672949,0.0025,0,0,0,0.0025,0,0,0,0.0025,-0.03,0,0.03,0.02,0,0,0,0.02,0,0,0,0.02,-0.833126953,-1.082107422,9.45666125,0.04,0,0,0,0.04,0,0,0,0.04
1.57E+18,21691,1.57E+18,base_imu_link,-0.036184664,0.059830783,-0.305704991,0.949555373,0.0025,0,0,0,0.0025,0,0,0,0.0025,-0.03,0.01,0.03,0.02,0,0,0,0.02,0,0,0,0.02,-0.751537969,-1.043802734,9.552422969,0.04,0,0,0,0.04,0,0,0,0.04
1.57E+18,21692,1.57E+18,base_imu_link,-0.036528418,0.059378172,-0.305479717,0.949643117,0.0025,0,0,0,0.0025,0,0,0,0.0025,-0.04,0.01,0.03,0.02,0,0,0,0.02,0,0,0,0.02,-0.976769531,-0.995921875,9.590727656,0.04,0,0,0,0.04,0,0,0,0.04
1.57E+18,21693,1.57E+18,base_imu_link,-0.036277974,0.05985113,-0.305534036,0.949605552,0.0025,0,0,0,0.0025,0,0,0,0.0025,-0.04,0,0.03,0.02,0,0,0,0.02,0,0,0,0.02,-0.953020625,-1.015074219,9.858477422,0.04,0,0,0,0.04,0,0,0,0.04
1.57E+18,21694,1.57E+18,base_imu_link,-0.036048585,0.059902574,-0.306118888,0.949422671,0.0025,0,0,0,0.0025,0,0,0,0.0025,-0.04,-0.01,0.02,0.02,0,0,0,0.02,0,0,0,0.02,-0.938464844,-0.909736328,9.590727656,0.04,0,0,0,0.04,0,0,0,0.04
1.57E+18,21695,1.57E+18,base_imu_link,-0.035496289,0.059974972,-0.305719177,0.949567692,0.0025,0,0,0,0.0025,0,0,0,0.0025,-0.03,-0.01,0.03,0.02,0,0,0,0.02,0,0,0,0.02,-0.885987422,-1.110835938,9.738966797,0.04,0,0,0,0.04,0,0,0,0.04
1.57E+18,21696,1.57E+18,base_imu_link,-0.035964774,0.059942895,-0.305704208,0.949556908,0.0025,0,0,0,0.0025,0,0,0,0.0025,-0.03,-0.01,0.03,0.02,0,0,0,0.02,0,0,0,0.02,-0.871431641,-0.991325313,9.600303828,0.04,0,0,0,0.04,0,0,0,0.04
1.57E+18,21697,1.57E+18,base_imu_link,-0.035820905,0.05980993,-0.305803127,0.949538879,0.0025,0,0,0,0.0025,0,0,0,0.0025,-0.03,0,0.03,0.02,0,0,0,0.02,0,0,0,0.02,-0.847682734,-0.981749141,9.590727656,0.04,0,0,0,0.04,0,0,0,0.04
1.57E+18,21698,1.57E+18,base_imu_link,-0.03569268,0.059667594,-0.305653409,0.949600866,0.0025,0,0,0,0.0025,0,0,0,0.0025,-0.03,0.01,0.03,0.02,0,0,0,0.02,0,0,0,0.02,-0.948041016,-0.957617188,9.705641719,0.04,0,0,0,0.04,0,0,0,0.04
1.57E+18,21699,1.57E+18,base_imu_link,-0.035247691,0.059894933,-0.305734868,0.949576952,0.0025,0,0,0,0.0025,0,0,0,0.0025,-0.03,0.01,0.03,0.02,0,0,0,0.02,0,0,0,0.02,-0.972172969,-0.967193359,9.825152344,0.04,0,0,0,0.04,0,0,0,0.04
1.57E+18,21700,1.57E+18,base_imu_link,-0.034917854,0.060063102,-0.305733914,0.949578823,0.0025,0,0,0,0.0025,0,0,0,0.0025,-0.04,0,0.03,0.02,0,0,0,0.02,0,0,0,0.02,-1.010477656,-1.053378906,9.542846797,0.04,0,0,0,0.04,0,0,0,0.04
1.57E+18,21701,1.57E+18,base_imu_link,-0.035102712,0.060657033,-0.305430843,0.949631784,0.0025,0,0,0,0.0025,0,0,0,0.0025,-0.04,-0.01,0.03,0.02,0,0,0,0.02,0,0,0,0.02,-0.895563594,-1.02963,9.504542109,0.04,0,0,0,0.04,0,0,0,0.04
1.57E+18,21702,1.57E+18,base_imu_link,-0.035284932,0.060633761,-0.305591588,0.949574801,0.0025,0,0,0,0.0025,0,0,0,0.0025,-0.03,-0.01,0.03,0.02,0,0,0,0.02,0,0,0,0.02,-0.833126953,-0.943444453,9.533270625,0.04,0,0,0,0.04,0,0,0,0.04
1.57E+18,21703,1.57E+18,base_imu_link,-0.035040745,0.060208373,-0.305966452,0.949490194,0.0025,0,0,0,0.0025,0,0,0,0.0025,-0.03,-0.01,0.03,0.02,0,0,0,0.02,0,0,0,0.02,-0.838106563,-1.096663203,9.561999141,0.04,0,0,0,0.04,0,0,0,0.04
1.57E+18,21704,1.57E+18,base_imu_link,-0.035552074,0.060084385,-0.305708352,0.949562173,0.0025,0,0,0,0.0025,0,0,0,0.0025,-0.03,0,0.03,0.02,0,0,0,0.02,0,0,0,0.02,-0.838106563,-0.943444453,9.581151484,0.04,0,0,0,0.04,0,0,0,0.04
1.57E+18,21705,1.57E+18,base_imu_link,-0.03525911,0.059821429,-0.305989015,0.949499297,0.0025,0,0,0,0.0025,0,0,0,0.0025,-0.03,0.01,0.03,0.02,0,0,0,0.02,0,0,0,0.02,-0.909736328,-0.995921875,9.796423828,0.04,0,0,0,0.04,0,0,0,0.04
1.57E+18,21706,1.57E+18,base_imu_link,-0.035165814,0.059800865,-0.306159949,0.94944895,0.0025,0,0,0,0.0025,0,0,0,0.0025,-0.03,0,0.03,0.02,0,0,0,0.02,0,0,0,0.02,-1.010477656,-0.933868281,9.629032344,0.04,0,0,0,0.04,0,0,0,0.04
1.57E+18,21707,1.57E+18,base_imu_link,-0.034660365,0.060264002,-0.305893518,0.949524125,0.0025,0,0,0,0.0025,0,0,0,0.0025,-0.04,-0.01,0.02,0.02,0,0,0,0.02,0,0,0,0.02,-0.986345703,-1.024650391,9.676913203,0.04,0,0,0,0.04,0,0,0,0.04
1.57E+18,21708,1.57E+18,base_imu_link,-0.034718372,0.060580734,-0.306280602,0.94937706,0.0025,0,0,0,0.0025,0,0,0,0.0025,-0.04,-0.01,0.02,0.02,0,0,0,0.02,0,0,0,0.02,-0.981749141,-1.058358516,9.911337891,0.04,0,0,0,0.04,0,0,0,0.04
1.57E+18,21709,1.57E+18,base_imu_link,-0.034746957,0.060772895,-0.306264174,0.949369032,0.0025,0,0,0,0.0025,0,0,0,0.0025,-0.03,-0.01,0.03,0.02,0,0,0,0.02,0,0,0,0.02,-0.861855469,-1.020053828,9.853880859,0.04,0,0,0,0.04,0,0,0,0.04
1.57E+18,21710,1.57E+18,base_imu_link,-0.03474627,0.060430465,-0.306705934,0.949248295,0.0025,0,0,0,0.0025,0,0,0,0.0025,-0.03,0,0.03,0.02,0,0,0,0.02,0,0,0,0.02,-0.852279297,-0.967193359,9.84890125,0.04,0,0,0,0.04,0,0,0,0.04
1.57E+18,21711,1.57E+18,base_imu_link,-0.034606421,0.060019332,-0.306743866,0.949267231,0.0025,0,0,0,0.0025,0,0,0,0.0025,-0.03,0,0.03,0.02,0,0,0,0.02,0,0,0,0.02,-0.828530391,-0.995921875,9.686489375,0.04,0,0,0,0.04,0,0,0,0.04
1.57E+18,21712,1.57E+18,base_imu_link,-0.034684292,0.059631473,-0.305942638,0.94954736,0.0025,0,0,0,0.0025,0,0,0,0.0025,-0.03,0,0.03,0.02,0,0,0,0.02,0,0,0,0.02,-1.024650391,-1.000901484,9.729390625,0.04,0,0,0,0.04,0,0,0,0.04
1.57E+18,21713,1.57E+18,base_imu_link,-0.034451761,0.060302367,-0.306147083,0.949447558,0.0025,0,0,0,0.0025,0,0,0,0.0025,-0.04,0,0.03,0.02,0,0,0,0.02,0,0,0,0.02,-1.034226563,-0.986345703,9.638608516,0.04,0,0,0,0.04,0,0,0,0.04
1.57E+18,21714,1.57E+18,base_imu_link,-0.034240691,0.060893387,-0.306439736,0.949323053,0.0025,0,0,0,0.0025,0,0,0,0.0025,-0.04,-0.01,0.03,0.02,0,0,0,0.02,0,0,0,0.02,-0.924292109,-0.981749141,9.95921875,0.04,0,0,0,0.04,0,0,0,0.04
1.57E+18,21715,1.57E+18,base_imu_link,-0.034161726,0.060588779,-0.30638409,0.949363348,0.0025,0,0,0,0.0025,0,0,0,0.0025,-0.04,-0.01,0.02,0.02,0,0,0,0.02,0,0,0,0.02,-0.905139766,-1.020053828,9.648184688,0.04,0,0,0,0.04,0,0,0,0.04
1.57E+18,21716,1.57E+18,base_imu_link,-0.034266429,0.06053579,-0.306467176,0.949336137,0.0025,0,0,0,0.0025,0,0,0,0.0025,-0.03,-0.01,0.03,0.02,0,0,0,0.02,0,0,0,0.02,-0.804398438,-1.115815547,9.681509766,0.04,0,0,0,0.04,0,0,0,0.04
1.57E+18,21717,1.57E+18,base_imu_link,-0.034958761,0.060114203,-0.306391525,0.949362102,0.0025,0,0,0,0.0025,0,0,0,0.0025,-0.03,0,0.03,0.02,0,0,0,0.02,0,0,0,0.02,-0.905139766,-0.986345703,9.786847656,0.04,0,0,0,0.04,0,0,0,0.04
1.57E+18,21718,1.57E+18,base_imu_link,-0.034803548,0.060054653,-0.306236312,0.949421652,0.0025,0,0,0,0.0025,0,0,0,0.0025,-0.03,0,0.03,0.02,0,0,0,0.02,0,0,0,0.02,-1.005498047,-1.024650391,9.681509766,0.04,0,0,0,0.04,0,0,0,0.04
1.57E+18,21719,1.57E+18,base_imu_link,-0.034712414,0.060651338,-0.305943627,0.949481417,0.0025,0,0,0,0.0025,0,0,0,0.0025,-0.03,0,0.03,0.02,0,0,0,0.02,0,0,0,0.02,-0.948041016,-0.967193359,9.801403438,0.04,0,0,0,0.04,0,0,0,0.04
1.57E+18,21720,1.57E+18,base_imu_link,-0.034498411,0.060692713,-0.306280074,0.949378097,0.0025,0,0,0,0.0025,0,0,0,0.0025,-0.04,0,0.03,0.02,0,0,0,0.02,0,0,0,0.02,-1.058358516,-0.976769531,9.844304688,0.04,0,0,0,0.04,0,0,0,0.04
1.57E+18,21721,1.57E+18,base_imu_link,-0.03405994,0.061191549,-0.306257194,0.949369289,0.0025,0,0,0,0.0025,0,0,0,0.0025,-0.04,-0.01,0.02,0.02,0,0,0,0.02,0,0,0,0.02,-1.062955078,-0.976769531,9.935086797,0.04,0,0,0,0.04,0,0,0,0.04
1.57E+18,21722,1.57E+18,base_imu_link,-0.033726345,0.061569341,-0.306737229,0.949201782,0.0025,0,0,0,0.0025,0,0,0,0.0025,-0.03,-0.01,0.03,0.02,0,0,0,0.02,0,0,0,0.02,-0.866835078,-1.067934688,9.724794063,0.04,0,0,0,0.04,0,0,0,0.04
1.57E+18,21723,1.57E+18,base_imu_link,-0.034142788,0.061218275,-0.306251852,0.949366313,0.0025,0,0,0,0.0025,0,0,0,0.0025,-0.03,-0.01,0.03,0.02,0,0,0,0.02,0,0,0,0.02,-0.866835078,-1.120412109,9.681509766,0.04,0,0,0,0.04,0,0,0,0.04
1.57E+18,21724,1.57E+18,base_imu_link,-0.034841912,0.06106841,-0.306071094,0.949408856,0.0025,0,0,0,0.0025,0,0,0,0.0025,-0.03,0,0.03,0.02,0,0,0,0.02,0,0,0,0.02,-0.871431641,-1.024650391,9.906358281,0.04,0,0,0,0.04,0,0,0,0.04
1.57E+18,21725,1.57E+18,base_imu_link,-0.034803272,0.060814813,-0.306673079,0.949232276,0.0025,0,0,0,0.0025,0,0,0,0.0025,-0.03,0.01,0.03,0.02,0,0,0,0.02,0,0,0,0.02,-0.986345703,-0.995921875,9.738966797,0.04,0,0,0,0.04,0,0,0,0.04
1.57E+18,21726,1.57E+18,base_imu_link,-0.034638425,0.061103756,-0.306241867,0.949358957,0.0025,0,0,0,0.0025,0,0,0,0.0025,-0.03,0,0.03,0.02,0,0,0,0.02,0,0,0,0.02,-1.067934688,-0.943444453,9.767695313,0.04,0,0,0,0.04,0,0,0,0.04
1.57E+18,21727,1.57E+18,base_imu_link,-0.034073822,0.06166749,-0.306467211,0.949270217,0.0025,0,0,0,0.0025,0,0,0,0.0025,-0.03,0,0.03,0.02,0,0,0,0.02,0,0,0,0.02,-0.895563594,-0.981749141,9.590727656,0.04,0,0,0,0.04,0,0,0,0.04
1.57E+18,21728,1.57E+18,base_imu_link,-0.03414993,0.061422353,-0.306566755,0.949251232,0.0025,0,0,0,0.0025,0,0,0,0.0025,-0.04,-0.01,0.03,0.02,0,0,0,0.02,0,0,0,0.02,-0.847682734,-1.18284875,9.614476563,0.04,0,0,0,0.04,0,0,0,0.04
1.57E+18,21729,1.57E+18,base_imu_link,-0.035213,0.06129389,-0.306287328,0.949310896,0.0025,0,0,0,0.0025,0,0,0,0.0025,-0.03,-0.01,0.03,0.02,0,0,0,0.02,0,0,0,0.02,-0.857258906,-1.077510859,9.676913203,0.04,0,0,0,0.04,0,0,0,0.04
1.57E+18,21730,1.57E+18,base_imu_link,-0.035597239,0.060960533,-0.306299511,0.9493141,0.0025,0,0,0,0.0025,0,0,0,0.0025,-0.03,-0.01,0.03,0.02,0,0,0,0.02,0,0,0,0.02,-0.866835078,-0.991325313,9.552422969,0.04,0,0,0,0.04,0,0,0,0.04
1.57E+18,21731,1.57E+18,base_imu_link,-0.035579283,0.060762174,-0.306150402,0.949375586,0.0025,0,0,0,0.0025,0,0,0,0.0025,-0.03,0,0.03,0.02,0,0,0,0.02,0,0,0,0.02,-0.895563594,-1.005498047,9.772674922,0.04,0,0,0,0.04,0,0,0,0.04
1.57E+18,21732,1.57E+18,base_imu_link,-0.035440711,0.060626023,-0.306166617,0.949384245,0.0025,0,0,0,0.0025,0,0,0,0.0025,-0.03,0,0.03,0.02,0,0,0,0.02,0,0,0,0.02,-0.847682734,-0.972172969,9.676913203,0.04,0,0,0,0.04,0,0,0,0.04
1.57E+18,21733,1.57E+18,base_imu_link,-0.035268273,0.060300788,-0.306282092,0.949374133,0.0025,0,0,0,0.0025,0,0,0,0.0025,-0.04,0,0.03,0.02,0,0,0,0.02,0,0,0,0.02,-1.010477656,-0.981749141,9.65278125,0.04,0,0,0,0.04,0,0,0,0.04
1.57E+18,21734,1.57E+18,base_imu_link,-0.035033238,0.060764244,-0.306088146,0.949415834,0.0025,0,0,0,0.0025,0,0,0,0.0025,-0.04,0,0.03,0.02,0,0,0,0.02,0,0,0,0.02,-0.995921875,-0.991325313,9.648184688,0.04,0,0,0,0.04,0,0,0,0.04
1.57E+18,21735,1.57E+18,base_imu_link,-0.034857898,0.061059287,-0.305822529,0.949488953,0.0025,0,0,0,0.0025,0,0,0,0.0025,-0.04,-0.01,0.02,0.02,0,0,0,0.02,0,0,0,0.02,-0.847682734,-0.953020625,9.542846797,0.04,0,0,0,0.04,0,0,0,0.04
1.57E+18,21736,1.57E+18,base_imu_link,-0.034696534,0.060660424,-0.30619219,0.949401288,0.0025,0,0,0,0.0025,0,0,0,0.0025,-0.03,-0.01,0.03,0.02,0,0,0,0.02,0,0,0,0.02,-0.833126953,-1.043802734,9.600303828,0.04,0,0,0,0.04,0,0,0,0.04
1.57E+18,21737,1.57E+18,base_imu_link,-0.035070179,0.060333109,-0.306369888,0.949351089,0.0025,0,0,0,0.0025,0,0,0,0.0025,-0.03,-0.01,0.03,0.02,0,0,0,0.02,0,0,0,0.02,-0.771073359,-0.948041016,9.696065547,0.04,0,0,0,0.04,0,0,0,0.04
1.57E+18,21738,1.57E+18,base_imu_link,-0.034878229,0.059534623,-0.306357553,0.949412549,0.0025,0,0,0,0.0025,0,0,0,0.0025,-0.03,0,0.03,0.02,0,0,0,0.02,0,0,0,0.02,-0.905139766,-0.933868281,9.523694453,0.04,0,0,0,0.04,0,0,0,0.04
1.57E+18,21739,1.57E+18,base_imu_link,-0.034565011,0.0596259,-0.306527831,0.949363313,0.0025,0,0,0,0.0025,0,0,0,0.0025,-0.03,0,0.03,0.02,0,0,0,0.02,0,0,0,0.02,-1.010477656,-0.857258906,9.95921875,0.04,0,0,0,0.04,0,0,0,0.04
1.57E+18,21740,1.57E+18,base_imu_link,-0.033693098,0.059860901,-0.305961909,0.949562403,0.0025,0,0,0,0.0025,0,0,0,0.0025,-0.04,0,0.03,0.02,0,0,0,0.02,0,0,0,0.02,-0.928888672,-0.890583984,9.65278125,0.04,0,0,0,0.04,0,0,0,0.04
1.57E+18,21741,1.57E+18,base_imu_link,-0.033236021,0.059818837,-0.306231173,0.949494361,0.0025,0,0,0,0.0025,0,0,0,0.0025,-0.04,0,0.02,0.02,0,0,0,0.02,0,0,0,0.02,-0.9193125,-1.192424922,9.734370234,0.04,0,0,0,0.04,0,0,0,0.04
1.57E+18,21742,1.57E+18,base_imu_link,-0.034303572,0.060104446,-0.306748556,0.949271323,0.0025,0,0,0,0.0025,0,0,0,0.0025,-0.04,-0.01,0.02,0.02,0,0,0,0.02,0,0,0,0.02,-0.866835078,-1.010477656,9.638608516,0.04,0,0,0,0.04,0,0,0,0.04
1.57E+18,21743,1.57E+18,base_imu_link,-0.034462681,0.059886091,-0.306842686,0.949248938,0.0025,0,0,0,0.0025,0,0,0,0.0025,-0.03,-0.01,0.03,0.02,0,0,0,0.02,0,0,0,0.02,-0.746941406,-0.948041016,9.590727656,0.04,0,0,0,0.04,0,0,0,0.04
1.57E+18,21744,1.57E+18,base_imu_link,-0.034416044,0.059153072,-0.307150688,0.949196979,0.0025,0,0,0,0.0025,0,0,0,0.0025,-0.03,0,0.03,0.02,0,0,0,0.02,0,0,0,0.02,-0.943444453,-1.034226563,9.705641719,0.04,0,0,0,0.04,0,0,0,0.04
1.57E+18,21745,1.57E+18,base_imu_link,-0.034515699,0.059445761,-0.306875391,0.949264116,0.0025,0,0,0,0.0025,0,0,0,0.0025,-0.03,0,0.03,0.02,0,0,0,0.02,0,0,0,0.02,-0.9193125,-0.933868281,9.667337031,0.04,0,0,0,0.04,0,0,0,0.04
1.57E+18,21746,1.57E+18,base_imu_link,-0.034123628,0.059574868,-0.306548352,0.949375859,0.0025,0,0,0,0.0025,0,0,0,0.0025,-0.03,0.01,0.03,0.02,0,0,0,0.02,0,0,0,0.02,-0.938464844,-1.07253125,9.523694453,0.04,0,0,0,0.04,0,0,0,0.04
1.57E+18,21747,1.57E+18,base_imu_link,-0.034528817,0.05998955,-0.306666262,0.949297013,0.0025,0,0,0,0.0025,0,0,0,0.0025,-0.03,0,0.03,0.02,0,0,0,0.02,0,0,0,0.02,-1.015074219,-0.962596797,9.782251094,0.04,0,0,0,0.04,0,0,0,0.04
1.57E+18,21748,1.57E+18,base_imu_link,-0.034123441,0.060334743,-0.306985792,0.949186511,0.0025,0,0,0,0.0025,0,0,0,0.0025,-0.04,-0.01,0.03,0.02,0,0,0,0.02,0,0,0,0.02,-0.991325313,-1.020053828,9.643205078,0.04,0,0,0,0.04,0,0,0,0.04
1.57E+18,21749,1.57E+18,base_imu_link,-0.034164453,0.06072807,-0.307201625,0.949090119,0.0025,0,0,0,0.0025,0,0,0,0.0025,-0.04,-0.01,0.02,0.02,0,0,0,0.02,0,0,0,0.02,-0.991325313,-1.154120234,9.95921875,0.04,0,0,0,0.04,0,0,0,0.04
1.57E+18,21750,1.57E+18,base_imu_link,-0.034668465,0.061093199,-0.307484565,0.948956775,0.0025,0,0,0,0.0025,0,0,0,0.0025,-0.03,-0.01,0.03,0.02,0,0,0,0.02,0,0,0,0.02,-0.823550781,-0.962596797,9.786847656,0.04,0,0,0,0.04,0,0,0,0.04
1.57E+18,21751,1.57E+18,base_imu_link,-0.034538435,0.060401061,-0.307379107,0.949039985,0.0025,0,0,0,0.0025,0,0,0,0.0025,-0.03,0,0.03,0.02,0,0,0,0.02,0,0,0,0.02,-0.852279297,-0.948041016,9.667337031,0.04,0,0,0,0.04,0,0,0,0.04
1.57E+18,21752,1.57E+18,base_imu_link,-0.034397855,0.060057512,-0.306997332,0.949190455,0.0025,0,0,0,0.0025,0,0,0,0.0025,-0.03,0,0.03,0.02,0,0,0,0.02,0,0,0,0.02,-0.722809453,-0.962596797,9.729390625,0.04,0,0,0,0.04,0,0,0,0.04
1.57E+18,21753,1.57E+18,base_imu_link,-0.034421206,0.059150069,-0.307067854,0.949223779,0.0025,0,0,0,0.0025,0,0,0,0.0025,-0.03,0.01,0.03,0.02,0,0,0,0.02,0,0,0,0.02,-0.967193359,-0.981749141,9.643205078,0.04,0,0,0,0.04,0,0,0,0.04
1.57E+18,21754,1.57E+18,base_imu_link,-0.03429568,0.059557624,-0.306874805,0.949265268,0.0025,0,0,0,0.0025,0,0,0,0.0025,-0.03,0,0.03,0.02,0,0,0,0.02,0,0,0,0.02,-0.871431641,-1.058358516,9.619456172,0.04,0,0,0,0.04,0,0,0,0.04
1.57E+18,21755,1.57E+18,base_imu_link,-0.034650218,0.059517471,-0.307361999,0.949097273,0.0025,0,0,0,0.0025,0,0,0,0.0025,-0.04,-0.01,0.02,0.02,0,0,0,0.02,0,0,0,0.02,-0.943444453,-1.020053828,9.705641719,0.04,0,0,0,0.04,0,0,0,0.04
1.57E+18,21756,1.57E+18,base_imu_link,-0.034751009,0.059742571,-0.307506204,0.949032732,0.0025,0,0,0,0.0025,0,0,0,0.0025,-0.04,-0.01,0.03,0.02,0,0,0,0.02,0,0,0,0.02,-0.833126953,-1.177869141,9.65278125,0.04,0,0,0,0.04,0,0,0,0.04
1.57E+18,21757,1.57E+18,base_imu_link,-0.03573497,0.059652106,-0.306730876,0.949252763,0.0025,0,0,0,0.0025,0,0,0,0.0025,-0.03,-0.01,0.03,0.02,0,0,0,0.02,0,0,0,0.02,-0.885987422,-1.043802734,9.815576172,0.04,0,0,0,0.04,0,0,0,0.04
1.57E+18,21758,1.57E+18,base_imu_link,-0.035751738,0.059575639,-0.306902133,0.949201579,0.0025,0,0,0,0.0025,0,0,0,0.0025,-0.03,0,0.03,0.02,0,0,0,0.02,0,0,0,0.02,-0.914715938,-0.9193125,9.715217891,0.04,0,0,0,0.04,0,0,0,0.04
1.57E+18,21759,1.57E+18,base_imu_link,-0.035210773,0.059574205,-0.306756524,0.949268956,0.0025,0,0,0,0.0025,0,0,0,0.0025,-0.03,0,0.03,0.02,0,0,0,0.02,0,0,0,0.02,-0.957617188,-0.948041016,9.839325078,0.04,0,0,0,0.04,0,0,0,0.04
1.57E+18,21760,1.57E+18,base_imu_link,-0.034709872,0.059691518,-0.306848789,0.949250214,0.0025,0,0,0,0.0025,0,0,0,0.0025,-0.03,0,0.03,0.02,0,0,0,0.02,0,0,0,0.02,-1.062955078,-0.933868281,9.84890125,0.04,0,0,0,0.04,0,0,0,0.04
1.57E+18,21761,1.57E+18,base_imu_link,-0.034056396,0.060299039,-0.306742548,0.949269823,0.0025,0,0,0,0.0025,0,0,0,0.0025,-0.04,0,0.03,0.02,0,0,0,0.02,0,0,0,0.02,-1.005498047,-0.928888672,9.681509766,0.04,0,0,0,0.04,0,0,0,0.04
1.57E+18,21762,1.57E+18,base_imu_link,-0.03368263,0.060626406,-0.306565213,0.949319593,0.0025,0,0,0,0.0025,0,0,0,0.0025,-0.04,-0.01,0.03,0.02,0,0,0,0.02,0,0,0,0.02,-1.010477656,-1.077510859,9.815576172,0.04,0,0,0,0.04,0,0,0,0.04
1.57E+18,21763,1.57E+18,base_imu_link,-0.034004737,0.061014232,-0.306687819,0.949243659,0.0025,0,0,0,0.0025,0,0,0,0.0025,-0.04,-0.01,0.03,0.02,0,0,0,0.02,0,0,0,0.02,-0.890583984,-1.034226563,9.839325078,0.04,0,0,0,0.04,0,0,0,0.04
1.57E+18,21764,1.57E+18,base_imu_link,-0.034163773,0.060795861,-0.306781944,0.949221544,0.0025,0,0,0,0.0025,0,0,0,0.0025,-0.03,-0.01,0.03,0.02,0,0,0,0.02,0,0,0,0.02,-0.857258906,-1.02963,9.619456172,0.04,0,0,0,0.04,0,0,0,0.04
1.57E+18,21765,1.57E+18,base_imu_link,-0.034350027,0.060494813,-0.306881621,0.949201835,0.0025,0,0,0,0.0025,0,0,0,0.0025,-0.03,0,0.03,0.02,0,0,0,0.02,0,0,0,0.02,-0.771073359,-1.101259766,9.671933594,0.04,0,0,0,0.04,0,0,0,0.04
1.57E+18,21766,1.57E+18,base_imu_link,-0.035042537,0.060073519,-0.306806046,0.949227709,0.0025,0,0,0,0.0025,0,0,0,0.0025,-0.03,0.01,0.03,0.02,0,0,0,0.02,0,0,0,0.02,-1.005498047,-0.933868281,9.825152344,0.04,0,0,0,0.04,0,0,0,0.04
1.57E+18,21767,1.57E+18,base_imu_link,-0.034449493,0.060444904,-0.307047542,0.949147751,0.0025,0,0,0,0.0025,0,0,0,0.0025,-0.03,0,0.03,0.02,0,0,0,0.02,0,0,0,0.02,-1.048782344,-0.986345703,9.734370234,0.04,0,0,0,0.04,0,0,0,0.04
1.57E+18,21768,1.57E+18,base_imu_link,-0.034202901,0.060982069,-0.306599875,0.949267015,0.0025,0,0,0,0.0025,0,0,0,0.0025,-0.04,0,0.02,0.02,0,0,0,0.02,0,0,0,0.02,-0.972172969,-1.034226563,9.667337031,0.04,0,0,0,0.04,0,0,0,0.04
1.57E+18,21769,1.57E+18,base_imu_link,-0.034375719,0.061239749,-0.306904092,0.94914587,0.0025,0,0,0,0.0025,0,0,0,0.0025,-0.04,-0.01,0.02,0.02,0,0,0,0.02,0,0,0,0.02,-0.938464844,-1.106239375,9.571575313,0.04,0,0,0,0.04,0,0,0,0.04
1.57E+18,21770,1.57E+18,base_imu_link,-0.034840532,0.061418686,-0.307368904,0.948966933,0.0025,0,0,0,0.0025,0,0,0,0.0025,-0.03,-0.01,0.03,0.02,0,0,0,0.02,0,0,0,0.02,-0.895563594,-1.129988281,9.681509766,0.04,0,0,0,0.04,0,0,0,0.04
1.57E+18,21771,1.57E+18,base_imu_link,-0.03547469,0.061441085,-0.307342661,0.948950488,0.0025,0,0,0,0.0025,0,0,0,0.0025,-0.03,-0.01,0.03,0.02,0,0,0,0.02,0,0,0,0.02,-0.881007813,-1.067934688,9.624052734,0.04,0,0,0,0.04,0,0,0,0.04
1.57E+18,21772,1.57E+18,base_imu_link,-0.035684082,0.061335604,-0.307508903,0.948895602,0.0025,0,0,0,0.0025,0,0,0,0.0025,-0.03,0,0.03,0.02,0,0,0,0.02,0,0,0,0.02,-0.885987422,-1.058358516,9.786847656,0.04,0,0,0,0.04,0,0,0,0.04
1.57E+18,21773,1.57E+18,base_imu_link,-0.035832072,0.061190845,-0.307349289,0.948951083,0.0025,0,0,0,0.0025,0,0,0,0.0025,-0.03,0.01,0.03,0.02,0,0,0,0.02,0,0,0,0.02,-0.838106563,-0.943444453,9.552422969,0.04,0,0,0,0.04,0,0,0,0.04
1.57E+18,21774,1.57E+18,base_imu_link,-0.035598454,0.060826202,-0.307139111,0.949051363,0.0025,0,0,0,0.0025,0,0,0,0.0025,-0.03,0,0.03,0.02,0,0,0,0.02,0,0,0,0.02,-1.07253125,-0.914715938,9.729390625,0.04,0,0,0,0.04,0,0,0,0.04
1.57E+18,21775,1.57E+18,base_imu_link,-0.034768433,0.061385795,-0.307208632,0.949023602,0.0025,0,0,0,0.0025,0,0,0,0.0025,-0.04,0,0.03,0.02,0,0,0,0.02,0,0,0,0.02,-0.948041016,-1.096663203,9.786847656,0.04,0,0,0,0.04,0,0,0,0.04
1.57E+18,21776,1.57E+18,base_imu_link,-0.035215103,0.06143408,-0.307104645,0.949037664,0.0025,0,0,0,0.0025,0,0,0,0.0025,-0.04,-0.01,0.03,0.02,0,0,0,0.02,0,0,0,0.02,-0.948041016,-1.07253125,9.60988,0.04,0,0,0,0.04,0,0,0,0.04
1.57E+18,21777,1.57E+18,base_imu_link,-0.035420216,0.061606435,-0.307331329,0.948945473,0.0025,0,0,0,0.0025,0,0,0,0.0025,-0.03,-0.01,0.03,0.02,0,0,0,0.02,0,0,0,0.02,-0.924292109,-0.943444453,9.614476563,0.04,0,0,0,0.04,0,0,0,0.04
1.57E+18,21778,1.57E+18,base_imu_link,-0.034990062,0.061481493,-0.307606607,0.948880339,0.0025,0,0,0,0.0025,0,0,0,0.0025,-0.03,-0.01,0.03,0.02,0,0,0,0.02,0,0,0,0.02,-0.838106563,-1.010477656,9.76309875,0.04,0,0,0,0.04,0,0,0,0.04
1.57E+18,21779,1.57E+18,base_imu_link,-0.035102711,0.060940247,-0.307148801,0.949059377,0.0025,0,0,0,0.0025,0,0,0,0.0025,-0.03,0,0.03,0.02,0,0,0,0.02,0,0,0,0.02,-0.914715938,-1.087087031,9.734370234,0.04,0,0,0,0.04,0,0,0,0.04
1.57E+18,21780,1.57E+18,base_imu_link,-0.035367147,0.061011399,-0.306884365,0.949130529,0.0025,0,0,0,0.0025,0,0,0,0.0025,-0.03,0.01,0.03,0.02,0,0,0,0.02,0,0,0,0.02,-0.957617188,-0.981749141,9.686489375,0.04,0,0,0,0.04,0,0,0,0.04
1.57E+18,21781,1.57E+18,base_imu_link,-0.035109234,0.061212046,-0.307043796,0.949075621,0.0025,0,0,0,0.0025,0,0,0,0.0025,-0.04,0,0.03,0.02,0,0,0,0.02,0,0,0,0.02,-0.881007813,-0.909736328,9.738966797,0.04,0,0,0,0.04,0,0,0,0.04
1.57E+18,21782,1.57E+18,base_imu_link,-0.034683296,0.060809249,-0.307258183,0.949047793,0.0025,0,0,0,0.0025,0,0,0,0.0025,-0.04,0,0.03,0.02,0,0,0,0.02,0,0,0,0.02,-1.005498047,-0.981749141,9.566595703,0.04,0,0,0,0.04,0,0,0,0.04
1.57E+18,21783,1.57E+18,base_imu_link,-0.034459039,0.061198877,-0.307318439,0.949011406,0.0025,0,0,0,0.0025,0,0,0,0.0025,-0.04,-0.01,0.03,0.02,0,0,0,0.02,0,0,0,0.02,-1.020053828,-1.034226563,9.629032344,0.04,0,0,0,0.04,0,0,0,0.04
1.57E+18,21784,1.57E+18,base_imu_link,-0.034472385,0.061674947,-0.30752819,0.94891215,0.0025,0,0,0,0.0025,0,0,0,0.0025,-0.03,-0.01,0.02,0.02,0,0,0,0.02,0,0,0,0.02,-0.87641125,-1.034226563,9.475813594,0.04,0,0,0,0.04,0,0,0,0.04
1.57E+18,21785,1.57E+18,base_imu_link,-0.034708618,0.06155419,-0.307280223,0.948991706,0.0025,0,0,0,0.0025,0,0,0,0.0025,-0.03,0,0.03,0.02,0,0,0,0.02,0,0,0,0.02,-0.852279297,-1.062955078,9.619456172,0.04,0,0,0,0.04,0,0,0,0.04
1.57E+18,21786,1.57E+18,base_imu_link,-0.035049928,0.061313094,-0.307535062,0.948912216,0.0025,0,0,0,0.0025,0,0,0,0.0025,-0.03,0,0.03,0.02,0,0,0,0.02,0,0,0,0.02,-0.871431641,-0.9193125,9.696065547,0.04,0,0,0,0.04,0,0,0,0.04
1.57E+18,21787,1.57E+18,base_imu_link,-0.034656077,0.060891936,-0.307252607,0.949045291,0.0025,0,0,0,0.0025,0,0,0,0.0025,-0.03,0.01,0.03,0.02,0,0,0,0.02,0,0,0,0.02,-0.938464844,-1.005498047,9.657760859,0.04,0,0,0,0.04,0,0,0,0.04
1.57E+18,21788,1.57E+18,base_imu_link,-0.034601638,0.061057309,-0.307241448,0.949040265,0.0025,0,0,0,0.0025,0,0,0,0.0025,-0.03,0,0.03,0.02,0,0,0,0.02,0,0,0,0.02,-0.991325313,-1.020053828,9.887205938,0.04,0,0,0,0.04,0,0,0,0.04
1.57E+18,21789,1.57E+18,base_imu_link,-0.034493225,0.061320422,-0.307638756,0.948898529,0.0025,0,0,0,0.0025,0,0,0,0.0025,-0.04,-0.01,0.03,0.02,0,0,0,0.02,0,0,0,0.02,-1.020053828,-0.957617188,9.475813594,0.04,0,0,0,0.04,0,0,0,0.04
1.57E+18,21790,1.57E+18,base_imu_link,-0.034223617,0.061662181,-0.307124667,0.949052664,0.0025,0,0,0,0.0025,0,0,0,0.0025,-0.04,-0.01,0.02,0.02,0,0,0,0.02,0,0,0,0.02,-0.957617188,-0.995921875,9.681509766,0.04,0,0,0,0.04,0,0,0,0.04
1.57E+18,21791,1.57E+18,base_imu_link,-0.034130039,0.061641337,-0.307295683,0.949002028,0.0025,0,0,0,0.0025,0,0,0,0.0025,-0.03,-0.01,0.03,0.02,0,0,0,0.02,0,0,0,0.02,-0.87641125,-0.972172969,9.782251094,0.04,0,0,0,0.04,0,0,0,0.04
1.57E+18,21792,1.57E+18,base_imu_link,-0.033974467,0.061239046,-0.307582464,0.948940748,0.0025,0,0,0,0.0025,0,0,0,0.0025,-0.03,0,0.03,0.02,0,0,0,0.02,0,0,0,0.02,-0.871431641,-0.972172969,9.657760859,0.04,0,0,0,0.04,0,0,0,0.04
1.57E+18,21793,1.57E+18,base_imu_link,-0.033890588,0.060937323,-0.30760974,0.948954329,0.0025,0,0,0,0.0025,0,0,0,0.0025,-0.03,0,0.03,0.02,0,0,0,0.02,0,0,0,0.02,-0.943444453,-1.005498047,9.76309875,0.04,0,0,0,0.04,0,0,0,0.04
1.57E+18,21794,1.57E+18,base_imu_link,-0.033841425,0.06109973,-0.307515868,0.948976065,0.0025,0,0,0,0.0025,0,0,0,0.0025,-0.03,0.01,0.03,0.02,0,0,0,0.02,0,0,0,0.02,-0.828530391,-0.976769531,9.877629766,0.04,0,0,0,0.04,0,0,0,0.04
1.57E+18,21795,1.57E+18,base_imu_link,-0.033871747,0.060464312,-0.307482275,0.949026566,0.0025,0,0,0,0.0025,0,0,0,0.0025,-0.04,0,0.03,0.02,0,0,0,0.02,0,0,0,0.02,-0.995921875,-0.976769531,9.643205078,0.04,0,0,0,0.04,0,0,0,0.04
1.57E+18,21796,1.57E+18,base_imu_link,-0.033740901,0.060874803,-0.307371923,0.949040732,0.0025,0,0,0,0.0025,0,0,0,0.0025,-0.04,-0.01,0.03,0.02,0,0,0,0.02,0,0,0,0.02,-0.981749141,-0.972172969,9.815576172,0.04,0,0,0,0.04,0,0,0,0.04
1.57E+18,21797,1.57E+18,base_imu_link,-0.033526776,0.060915551,-0.307708305,0.948936695,0.0025,0,0,0,0.0025,0,0,0,0.0025,-0.04,-0.01,0.03,0.02,0,0,0,0.02,0,0,0,0.02,-0.885987422,-1.244902344,9.671933594,0.04,0,0,0,0.04,0,0,0,0.04
1.57E+18,21798,1.57E+18,base_imu_link,-0.034824022,0.061085471,-0.308059126,0.948765212,0.0025,0,0,0,0.0025,0,0,0,0.0025,-0.03,-0.01,0.02,0.02,0,0,0,0.02,0,0,0,0.02,-0.928888672,-1.101259766,9.844304688,0.04,0,0,0,0.04,0,0,0,0.04
1.57E+18,21799,1.57E+18,base_imu_link,-0.035187827,0.06110727,-0.30796062,0.948782364,0.0025,0,0,0,0.0025,0,0,0,0.0025,-0.03,0,0.03,0.02,0,0,0,0.02,0,0,0,0.02,-0.809378047,-1.02963,9.782251094,0.04,0,0,0,0.04,0,0,0,0.04
1.57E+18,21800,1.57E+18,base_imu_link,-0.035269619,0.060517139,-0.308419214,0.948668181,0.0025,0,0,0,0.0025,0,0,0,0.0025,-0.03,0,0.03,0.02,0,0,0,0.02,0,0,0,0.02,-0.871431641,-1.115815547,9.509138672,0.04,0,0,0,0.04,0,0,0,0.04
1.57E+18,21801,1.57E+18,base_imu_link,-0.035854419,0.060702402,-0.308299403,0.948673367,0.0025,0,0,0,0.0025,0,0,0,0.0025,-0.03,0.01,0.03,0.02,0,0,0,0.02,0,0,0,0.02,-0.895563594,-1.07253125,9.738966797,0.04,0,0,0,0.04,0,0,0,0.04
1.57E+18,21802,1.57E+18,base_imu_link,-0.036094949,0.060645227,-0.307549296,0.948911346,0.0025,0,0,0,0.0025,0,0,0,0.0025,-0.04,0,0.03,0.02,0,0,0,0.02,0,0,0,0.02,-0.881007813,-1.005498047,9.758119141,0.04,0,0,0,0.04,0,0,0,0.04
1.57E+18,21803,1.57E+18,base_imu_link,-0.03603498,0.060471914,-0.308062714,0.948758132,0.0025,0,0,0,0.0025,0,0,0,0.0025,-0.04,-0.01,0.03,0.02,0,0,0,0.02,0,0,0,0.02,-0.986345703,-1.043802734,9.552422969,0.04,0,0,0,0.04,0,0,0,0.04
1.57E+18,21804,1.57E+18,base_imu_link,-0.036086087,0.060859466,-0.308112243,0.948715324,0.0025,0,0,0,0.0025,0,0,0,0.0025,-0.04,-0.01,0.03,0.02,0,0,0,0.02,0,0,0,0.02,-0.972172969,-0.953020625,9.796423828,0.04,0,0,0,0.04,0,0,0,0.04
1.57E+18,21805,1.57E+18,base_imu_link,-0.03551349,0.060875848,-0.308463937,0.948621591,0.0025,0,0,0,0.0025,0,0,0,0.0025,-0.03,-0.01,0.03,0.02,0,0,0,0.02,0,0,0,0.02,-0.962596797,-1.015074219,9.76309875,0.04,0,0,0,0.04,0,0,0,0.04
1.57E+18,21806,1.57E+18,base_imu_link,-0.035276596,0.0610638,-0.30829209,0.948674212,0.0025,0,0,0,0.0025,0,0,0,0.0025,-0.03,0,0.03,0.02,0,0,0,0.02,0,0,0,0.02,-0.847682734,-1.020053828,9.619456172,0.04,0,0,0,0.04,0,0,0,0.04
1.57E+18,21807,1.57E+18,base_imu_link,-0.035406292,0.06078805,-0.307563798,0.948923452,0.0025,0,0,0,0.0025,0,0,0,0.0025,-0.03,0.01,0.03,0.02,0,0,0,0.02,0,0,0,0.02,-0.905139766,-0.991325313,9.743946406,0.04,0,0,0,0.04,0,0,0,0.04
1.57E+18,21808,1.57E+18,base_imu_link,-0.035230073,0.060740519,-0.307740017,0.948875921,0.0025,0,0,0,0.0025,0,0,0,0.0025,-0.03,0,0.03,0.02,0,0,0,0.02,0,0,0,0.02,-0.924292109,-0.986345703,9.772674922,0.04,0,0,0,0.04,0,0,0,0.04
1.57E+18,21809,1.57E+18,base_imu_link,-0.035059166,0.060689867,-0.307833418,0.948855195,0.0025,0,0,0,0.0025,0,0,0,0.0025,-0.04,0,0.03,0.02,0,0,0,0.02,0,0,0,0.02,-0.986345703,-1.039206172,9.700662109,0.04,0,0,0,0.04,0,0,0,0.04
1.57E+18,21810,1.57E+18,base_imu_link,-0.035044197,0.060973915,-0.308059691,0.948764098,0.0025,0,0,0,0.0025,0,0,0,0.0025,-0.04,-0.01,0.03,0.02,0,0,0,0.02,0,0,0,0.02,-0.933868281,-0.972172969,9.624052734,0.04,0,0,0,0.04,0,0,0,0.04
1.57E+18,21811,1.57E+18,base_imu_link,-0.034862656,0.060929276,-0.308318705,0.948689514,0.0025,0,0,0,0.0025,0,0,0,0.0025,-0.03,-0.01,0.03,0.02,0,0,0,0.02,0,0,0,0.02,-0.895563594,-1.110835938,9.882609375,0.04,0,0,0,0.04,0,0,0,0.04
1.57E+18,21812,1.57E+18,base_imu_link,-0.035286359,0.060782777,-0.30814871,0.948738478,0.0025,0,0,0,0.0025,0,0,0,0.0025,-0.03,-0.01,0.03,0.02,0,0,0,0.02,0,0,0,0.02,-0.866835078,-1.077510859,9.705641719,0.04,0,0,0,0.04,0,0,0,0.04
